ACCELEROMETER X (m/s²),ACCELEROMETER Y (m/s²),ACCELEROMETER Z (m/s²),YYYY-MO-DD HH-MI-SS_SSS
-3.4046,1.8675,8.5521,2017-03-21 18:09:38:739
-2.1117,-2.8826,10.228,2017-03-21 18:09:38:749
-2.1117,-2.8826,10.228,2017-03-21 18:09:38:759
-5.5258,-3.8403,5.7365,2017-03-21 18:09:38:769
-5.5258,-3.8403,5.7365,2017-03-21 18:09:38:780
-12.8138,-3.3327,-0.8715,2017-03-21 18:09:38:790
-12.8138,-3.3327,-0.8715,2017-03-21 18:09:38:799
-15.8975,-4.7692,-6.2106,2017-03-21 18:09:38:809
-15.8975,-4.7692,-6.2106,2017-03-21 18:09:38:819
-4.6831,-4.4676,-4.2377,2017-03-21 18:09:38:830
-4.6831,-4.4676,-4.2377,2017-03-21 18:09:38:839
3.6727,-3.0646,-3.5386,2017-03-21 18:09:38:849
4.7884,-2.6097,-5.3103,2017-03-21 18:09:38:859
4.7884,-2.6097,-5.3103,2017-03-21 18:09:38:869
2.6193,-1.5897,-0.2298,2017-03-21 18:09:38:880
0.7135,-0.6752,-1.0534,2017-03-21 18:09:38:890
0.7135,-0.6752,-1.0534,2017-03-21 18:09:38:899
-4.0558,1.4222,-22.9221,2017-03-21 18:09:38:909
-4.0558,1.4222,-22.9221,2017-03-21 18:09:38:919
-1.5467,-0.8475,-0.0814,2017-03-21 18:09:38:929
-1.5467,-0.8475,-0.0814,2017-03-21 18:09:38:939
-2.9161,3.711,2.9018,2017-03-21 18:09:38:949
-2.6719,8.7388,6.4452,2017-03-21 18:09:38:959
-2.6719,8.7388,6.4452,2017-03-21 18:09:38:969
7.4316,22.0937,24.2245,2017-03-21 18:09:38:980
9.5481,31.9003,30.6554,2017-03-21 18:09:38:989
9.5481,31.9003,30.6554,2017-03-21 18:09:39:000
9.5481,31.9003,30.6554,2017-03-21 18:09:39:010
9.2895,29.1997,22.855,2017-03-21 18:09:39:019
9.2895,29.1997,22.855,2017-03-21 18:09:39:029
-2.083,34.4669,3.0789,2017-03-21 18:09:39:039
0.7326,42.3869,-12.0859,2017-03-21 18:09:39:049
0.7326,42.3869,-12.0859,2017-03-21 18:09:39:059
11.9519,39.7581,-16.6876,2017-03-21 18:09:39:070
11.9519,39.7581,-16.6876,2017-03-21 18:09:39:079
27.0928,19.484,-24.7177,2017-03-21 18:09:39:089
18.3013,-5.9472,-54.6884,2017-03-21 18:09:39:099
18.3013,-5.9472,-54.6884,2017-03-21 18:09:39:109
-1.5562,-15.7682,-102.5532,2017-03-21 18:09:39:120
-1.1636,16.1896,5.0278,2017-03-21 18:09:39:129
-1.1636,16.1896,5.0278,2017-03-21 18:09:39:139
15.2271,9.165,-16.338,2017-03-21 18:09:39:150
15.2271,9.165,-16.338,2017-03-21 18:09:39:159
8.6191,8.6766,5.7509,2017-03-21 18:09:39:169
7.4891,6.8235,4.1132,2017-03-21 18:09:39:180
7.4891,6.8235,4.1132,2017-03-21 18:09:39:189
5.387,2.4421,0.3112,2017-03-21 18:09:39:199
5.387,2.4421,0.3112,2017-03-21 18:09:39:209
7.3885,-1.4413,-14.3173,2017-03-21 18:09:39:220
5.8945,-3.2705,-13.5751,2017-03-21 18:09:39:229
5.8945,-3.2705,-13.5751,2017-03-21 18:09:39:239
0.1437,-1.8483,-1.0774,2017-03-21 18:09:39:249
0.1437,-1.8483,-1.0774,2017-03-21 18:09:39:259
1.9824,-0.9337,5.5354,2017-03-21 18:09:39:269
2.5187,-0.9146,6.6272,2017-03-21 18:09:39:280
2.5187,-0.9146,6.6272,2017-03-21 18:09:39:290
0.6369,3.1316,7.7955,2017-03-21 18:09:39:300
0.6369,3.1316,7.7955,2017-03-21 18:09:39:309
-1.9441,10.1083,6.9097,2017-03-21 18:09:39:319
-3.1508,16.5775,4.1228,2017-03-21 18:09:39:329
-3.1508,16.5775,4.1228,2017-03-21 18:09:39:339
0.2394,34.1365,-16.3237,2017-03-21 18:09:39:349
0.2394,34.1365,-16.3237,2017-03-21 18:09:39:359
30.5787,50.2016,0.9816,2017-03-21 18:09:39:369
37.7422,53.2806,15.0835,2017-03-21 18:09:39:380
37.7422,53.2806,15.0835,2017-03-21 18:09:39:389
11.2049,32.4606,11.3772,2017-03-21 18:09:39:399
11.2049,32.4606,11.3772,2017-03-21 18:09:39:409
6.4643,24.3155,-12.2296,2017-03-21 18:09:39:419
6.4643,24.3155,-12.2296,2017-03-21 18:09:39:429
-0.249,19.0483,-32.5994,2017-03-21 18:09:39:439
-9.0501,14.8057,3.2322,2017-03-21 18:09:39:449
-9.0501,14.8057,3.2322,2017-03-21 18:09:39:459
-6.3063,9.1219,5.5737,2017-03-21 18:09:39:469
-6.3063,9.1219,5.5737,2017-03-21 18:09:39:479
-5.3295,6.4643,7.8147,2017-03-21 18:09:39:489
-5.2241,1.2163,8.3701,2017-03-21 18:09:39:499
-5.2241,1.2163,8.3701,2017-03-21 18:09:39:509
-8.6622,-1.4269,9.4571,2017-03-21 18:09:39:519
-8.6622,-1.4269,9.4571,2017-03-21 18:09:39:529
-12.3541,0.1341,11.995,2017-03-21 18:09:39:539
-12.3541,0.1341,11.995,2017-03-21 18:09:39:550
-15.9167,-0.8092,11.2144,2017-03-21 18:09:39:559
-16.0603,-2.8252,4.6304,2017-03-21 18:09:39:569
-16.0603,-2.8252,4.6304,2017-03-21 18:09:39:579
-14.686,-3.4907,0.431,2017-03-21 18:09:39:590
-14.686,-3.4907,0.431,2017-03-21 18:09:39:599
-14.686,-3.4907,0.431,2017-03-21 18:09:39:609
5.0661,-9.821,-16.2279,2017-03-21 18:09:39:620
5.0661,-9.821,-16.2279,2017-03-21 18:09:39:629
12.8808,-7.6471,-24.1288,2017-03-21 18:09:39:639
12.8808,-7.6471,-24.1288,2017-03-21 18:09:39:649
-0.2538,-1.652,-5.3295,2017-03-21 18:09:39:659
-0.2538,-1.5131,-4.1228,2017-03-21 18:09:39:669
-1.9728,-1.5131,-4.1228,2017-03-21 18:09:39:680
-3.0311,-1.6185,-0.4549,2017-03-21 18:09:39:689
-3.0311,-1.6185,-0.4549,2017-03-21 18:09:39:699
-3.3998,0.996,3.9169,2017-03-21 18:09:39:709
-3.3998,0.996,3.9169,2017-03-21 18:09:39:719
-3.7158,4.276,5.1571,2017-03-21 18:09:39:729
-3.6344,7.5848,7.0581,2017-03-21 18:09:39:740
-3.6344,7.5848,7.0581,2017-03-21 18:09:39:750
-2.6767,19.6756,26.5469,2017-03-21 18:09:39:760
-2.6767,19.6756,26.5469,2017-03-21 18:09:39:769
7.2449,38.585,49.9861,2017-03-21 18:09:39:779
3.8355,40.893,36.5978,2017-03-21 18:09:39:789
3.8355,40.893,36.5978,2017-03-21 18:09:39:801
-5.1236,47.1323,-1.6089,2017-03-21 18:09:39:810
-5.1236,47.1323,-1.6089,2017-03-21 18:09:39:819
6.7852,45.7053,-20.073,2017-03-21 18:09:39:829
11.1426,40.2226,-20.3028,2017-03-21 18:09:39:839
11.1426,40.2226,-20.3028,2017-03-21 18:09:39:849
32.2643,-5.1571,-62.0098,2017-03-21 18:09:39:869
32.2643,-5.1571,-62.0098,2017-03-21 18:09:39:870
17.1185,-6.8522,-107.1501,2017-03-21 18:09:39:879
17.1185,-6.8522,-107.1501,2017-03-21 18:09:39:890
24.1958,12.2679,-14.0588,2017-03-21 18:09:39:899
16.9031,14.4945,0.4357,2017-03-21 18:09:39:910
16.9031,14.4945,0.4357,2017-03-21 18:09:39:919
8.3797,8.6,0.7087,2017-03-21 18:09:39:929
8.3797,8.6,0.7087,2017-03-21 18:09:39:939
7.4172,5.6599,-1.5706,2017-03-21 18:09:39:949
10.0748,-1.0582,-12.311,2017-03-21 18:09:39:960
10.0748,-1.0582,-12.311,2017-03-21 18:09:39:969
3.7781,-2.3272,-5.6024,2017-03-21 18:09:39:979
3.7781,-2.3272,-5.6024,2017-03-21 18:09:39:989
2.0494,-2.0494,-3.9217,2017-03-21 18:09:39:999
1.3838,-2.0638,-0.5219,2017-03-21 18:09:40:010
1.3838,-2.0638,-0.5219,2017-03-21 18:09:40:019
2.0351,-2.49,3.1747,2017-03-21 18:09:40:029
2.0351,-2.49,3.1747,2017-03-21 18:09:40:039
-2.1404,0.0431,5.4875,2017-03-21 18:09:40:049
-2.9688,2.8012,9.2512,2017-03-21 18:09:40:059
-2.9688,2.8012,9.2512,2017-03-21 18:09:40:069
-5.8179,7.5034,12.9,2017-03-21 18:09:40:079
-5.8179,7.5034,12.9,2017-03-21 18:09:40:090
-8.3653,10.5728,12.627,2017-03-21 18:09:40:099
-8.3653,10.5728,12.627,2017-03-21 18:09:40:109
-13.7714,20.7817,7.2353,2017-03-21 18:09:40:119
13.3166,45.4419,-0.4166,2017-03-21 18:09:40:130
13.3166,45.4419,-0.4166,2017-03-21 18:09:40:139
51.8345,46.3182,7.9296,2017-03-21 18:09:40:149
51.8345,46.3182,7.9296,2017-03-21 18:09:40:159
25.7089,39.5953,3.6392,2017-03-21 18:09:40:169
25.7089,39.5953,3.6392,2017-03-21 18:09:40:179
2.1069,22.7497,-11.7172,2017-03-21 18:09:40:189
-0.0192,14.9111,-28.3426,2017-03-21 18:09:40:199
-0.0192,14.9111,-28.3426,2017-03-21 18:09:40:209
12.2583,0.0383,57.7386,2017-03-21 18:09:40:219
-11.6406,6.1435,-7.4412,2017-03-21 18:09:40:229
-11.6406,6.1435,-7.4412,2017-03-21 18:09:40:239
-11.6406,6.1435,-7.4412,2017-03-21 18:09:40:249
-6.924,2.2697,4.0558,2017-03-21 18:09:40:259
-4.4388,-0.1149,5.0613,2017-03-21 18:09:40:269
-4.4388,-0.1149,5.0613,2017-03-21 18:09:40:279
-3.4429,-4.5921,7.1204,2017-03-21 18:09:40:289
-3.4429,-4.5921,7.1204,2017-03-21 18:09:40:299
-5.3343,-6.7038,10.3813,2017-03-21 18:09:40:309
-5.3343,-6.7038,10.3813,2017-03-21 18:09:40:319
-6.8522,-3.6057,13.0245,2017-03-21 18:09:40:329
-6.8522,-3.6057,13.0245,2017-03-21 18:09:40:339
-9.3326,-2.9257,6.5745,2017-03-21 18:09:40:349
-7.3741,-2.4995,0.7901,2017-03-21 18:09:40:359
-5.4013,-2.217,-2.8395,2017-03-21 18:09:40:369
-5.4013,-2.217,-2.8395,2017-03-21 18:09:40:379
-2.8587,-1.6137,-4.9416,2017-03-21 18:09:40:389
-2.8587,-1.6137,-4.9416,2017-03-21 18:09:40:399
0.0048,-0.8906,-5.6503,2017-03-21 18:09:40:409
-1.6233,-0.1724,-9.5098,2017-03-21 18:09:40:419
-1.6233,-0.1724,-9.5098,2017-03-21 18:09:40:429
-2.6288,0.4118,-28.7113,2017-03-21 18:09:40:439
-2.6288,0.4118,-28.7113,2017-03-21 18:09:40:449
-3.6679,0.1484,-2.739,2017-03-21 18:09:40:459
-5.4684,5.023,-1.4365,2017-03-21 18:09:40:469
-5.4684,5.023,-1.4365,2017-03-21 18:09:40:479
-6.8426,8.7005,-0.1197,2017-03-21 18:09:40:489
-6.8426,8.7005,-0.1197,2017-03-21 18:09:40:499
-2.715,17.1138,8.193,2017-03-21 18:09:40:509
21.2892,24.9284,19.2781,2017-03-21 18:09:40:519
21.2892,24.9284,19.2781,2017-03-21 18:09:40:529
35.3959,27.5237,29.1326,2017-03-21 18:09:40:539
35.3959,27.5237,29.1326,2017-03-21 18:09:40:549
13.7667,33.1597,27.337,2017-03-21 18:09:40:559
2.8874,43.9623,6.0573,2017-03-21 18:09:40:569
2.8874,43.9623,6.0573,2017-03-21 18:09:40:579
5.363,43.6224,-4.3383,2017-03-21 18:09:40:590
5.363,43.6224,-4.3383,2017-03-21 18:09:40:601
17.5495,27.5333,-10.1706,2017-03-21 18:09:40:609
17.5495,27.5333,-10.1706,2017-03-21 18:09:40:620
7.3167,-10.1035,-64.4567,2017-03-21 18:09:40:630
-0.1389,-7.7237,-5.6024,2017-03-21 18:09:40:639
-0.1389,-7.7237,-5.6024,2017-03-21 18:09:40:649
13.4171,10.3382,-20.1161,2017-03-21 18:09:40:659
13.4171,10.3382,-20.1161,2017-03-21 18:09:40:669
13.4458,11.497,-2.3511,2017-03-21 18:09:40:679
9.6438,11.4251,2.332,2017-03-21 18:09:40:689
9.6438,11.4251,2.332,2017-03-21 18:09:40:699
7.1539,6.4739,-2.1117,2017-03-21 18:09:40:709
7.1539,6.4739,-2.1117,2017-03-21 18:09:40:719
4.8746,1.7765,-4.9943,2017-03-21 18:09:40:730
4.8746,1.7765,-4.9943,2017-03-21 18:09:40:739
2.4325,0.9768,-7.5274,2017-03-21 18:09:40:749
-1.5036,-1.245,-9.1458,2017-03-21 18:09:40:759
-1.5036,-1.245,-9.1458,2017-03-21 18:09:40:769
-0.8332,-0.5794,5.0853,2017-03-21 18:09:40:779
-0.0958,0.091,7.9727,2017-03-21 18:09:40:789
-0.0958,0.091,7.9727,2017-03-21 18:09:40:802
0.2586,1.1732,8.9735,2017-03-21 18:09:40:809
0.2586,1.1732,8.9735,2017-03-21 18:09:40:820
0.0192,7.6519,10.3334,2017-03-21 18:09:40:829
2.5762,12.2009,8.0637,2017-03-21 18:09:40:839
2.5762,12.2009,8.0637,2017-03-21 18:09:40:849
13.441,38.2258,-33.6577,2017-03-21 18:09:40:859
13.441,38.2258,-33.6577,2017-03-21 18:09:40:870
27.9308,49.2152,8.8442,2017-03-21 18:09:40:879
27.9308,49.2152,8.8442,2017-03-21 18:09:40:889
17.6405,51.8536,19.9724,2017-03-21 18:09:40:899
17.741,34.0216,12.8712,2017-03-21 18:09:40:910
17.741,34.0216,12.8712,2017-03-21 18:09:40:919
14.3748,20.3986,-20.6859,2017-03-21 18:09:40:929
14.3748,20.3986,-20.6859,2017-03-21 18:09:40:939
-0.4741,5.2864,-4.9608,2017-03-21 18:09:40:950
-0.4741,5.2864,-4.9608,2017-03-21 18:09:40:959
-7.5417,7.8961,3.9121,2017-03-21 18:09:40:971
-6.5649,7.0437,5.7413,2017-03-21 18:09:40:979
-6.5649,7.0437,5.7413,2017-03-21 18:09:40:990
-3.5626,1.9824,5.5067,2017-03-21 18:09:40:999
-3.5626,1.9824,5.5067,2017-03-21 18:09:41:009
-5.8993,-1.6376,7.9535,2017-03-21 18:09:41:019
-5.2912,-1.7095,9.323,2017-03-21 18:09:41:029
-5.2912,-1.7095,9.323,2017-03-21 18:09:41:039
-9.7396,-1.9824,11.5544,2017-03-21 18:09:41:049
-9.7396,-1.9824,11.5544,2017-03-21 18:09:41:059
-13.4985,-2.1021,8.8394,2017-03-21 18:09:41:069
-12.6749,-2.375,5.9951,2017-03-21 18:09:41:079
-12.6749,-2.375,5.9951,2017-03-21 18:09:41:089
-11.9758,-3.2274,0.34,2017-03-21 18:09:41:099
-11.9758,-3.2274,0.34,2017-03-21 18:09:41:110
-4.9368,-4.1755,-6.5362,2017-03-21 18:09:41:120
-4.9368,-4.1755,-6.5362,2017-03-21 18:09:41:129
4.1132,-2.5905,-12.7755,2017-03-21 18:09:41:139
6.1483,-2.3559,-20.8966,2017-03-21 18:09:41:149
6.1483,-2.3559,-20.8966,2017-03-21 18:09:41:159
-5.3582,0.6416,-37.2634,2017-03-21 18:09:41:169
-6.3207,-1.8148,1.5083,2017-03-21 18:09:41:179
-6.3207,-1.8148,1.5083,2017-03-21 18:09:41:189
-5.3391,-0.1532,3.1173,2017-03-21 18:09:41:200
-5.3391,-0.1532,3.1173,2017-03-21 18:09:41:209
-7.2544,7.3023,7.7955,2017-03-21 18:09:41:219
-7.2544,7.3023,7.7955,2017-03-21 18:09:41:229
-2.7007,14.8345,15.5767,2017-03-21 18:09:41:239
3.1891,19.1009,22.563,2017-03-21 18:09:41:250
3.1891,19.1009,22.563,2017-03-21 18:09:41:259
11.497,30.9091,39.9066,2017-03-21 18:09:41:269
11.497,30.9091,39.9066,2017-03-21 18:09:41:279
2.6193,36.8563,30.2052,2017-03-21 18:09:41:289
0.7374,42.4253,14.5711,2017-03-21 18:09:41:299
0.7374,42.4253,14.5711,2017-03-21 18:09:41:309
7.7189,48.7507,-7.7907,2017-03-21 18:09:41:319
7.7189,48.7507,-7.7907,2017-03-21 18:09:41:329
16.2327,40.9361,-13.7523,2017-03-21 18:09:41:339
9.2177,-5.928,-121.0652,2017-03-21 18:09:41:349
9.2177,-5.928,-121.0652,2017-03-21 18:09:41:360
-4.2473,15.8688,61.4256,2017-03-21 18:09:41:370
-4.2473,15.8688,61.4256,2017-03-21 18:09:41:379
14.8536,12.9383,-26.6666,2017-03-21 18:09:41:389
14.8536,12.9383,-26.6666,2017-03-21 18:09:41:400
12.5121,13.3309,1.9058,2017-03-21 18:09:41:410
7.0581,9.6965,5.7988,2017-03-21 18:09:41:420
7.0581,9.6965,5.7988,2017-03-21 18:09:41:430
5.9424,7.2927,4.1851,2017-03-21 18:09:41:439
5.9424,7.2927,4.1851,2017-03-21 18:09:41:449
3.5003,2.9209,1.3934,2017-03-21 18:09:41:459
5.1236,-2.5474,-5.5785,2017-03-21 18:09:41:470
5.1236,-2.5474,-5.5785,2017-03-21 18:09:41:479
-0.1484,-0.1197,-2.1021,2017-03-21 18:09:41:489
-0.1484,-0.1197,-2.1021,2017-03-21 18:09:41:500
-0.7278,-0.8667,-0.8188,2017-03-21 18:09:41:510
-0.7278,-0.8667,-0.8188,2017-03-21 18:09:41:520
1.063,-3.1651,1.3982,2017-03-21 18:09:41:531
1.6089,-3.4093,2.0303,2017-03-21 18:09:41:539
1.6089,-3.4093,2.0303,2017-03-21 18:09:41:550
1.6089,-3.4093,2.0303,2017-03-21 18:09:41:559
2.5331,-1.0199,5.138,2017-03-21 18:09:41:570
3.4237,1.6424,6.675,2017-03-21 18:09:41:579
3.4237,1.6424,6.675,2017-03-21 18:09:41:590
3.4237,1.6424,6.675,2017-03-21 18:09:41:599
3.4237,1.6424,6.675,2017-03-21 18:09:41:609
3.4237,1.6424,6.675,2017-03-21 18:09:41:619
3.4237,1.6424,6.675,2017-03-21 18:09:41:629
3.4237,1.6424,6.675,2017-03-21 18:09:41:639
3.4237,1.6424,6.675,2017-03-21 18:09:41:649
0.498,36.7749,-8.0014,2017-03-21 18:09:41:659
0.498,36.7749,-8.0014,2017-03-21 18:09:41:669
0.498,36.7749,-8.0014,2017-03-21 18:09:41:679
0.498,36.7749,-8.0014,2017-03-21 18:09:41:690
8.6431,18.6604,-10.1514,2017-03-21 18:09:41:700
-11.8609,6.8809,-18.4976,2017-03-21 18:09:41:709
-11.8609,6.8809,-18.4976,2017-03-21 18:09:41:720
-2.7964,4.5394,3.5338,2017-03-21 18:09:41:729
-2.7964,4.5394,3.5338,2017-03-21 18:09:41:739
-0.9816,2.241,5.4971,2017-03-21 18:09:41:749
-0.9816,2.241,5.4971,2017-03-21 18:09:41:760
-0.9816,2.241,5.4971,2017-03-21 18:09:41:769
-0.9816,2.241,5.4971,2017-03-21 18:09:41:779
-0.9816,2.241,5.4971,2017-03-21 18:09:41:789
1.9632,-4.5873,4.8459,2017-03-21 18:09:41:799
1.9632,-4.5873,4.8459,2017-03-21 18:09:41:809
-2.8539,-4.8937,6.6032,2017-03-21 18:09:41:819
-2.8539,-4.8937,6.6032,2017-03-21 18:09:41:829
-2.8539,-4.8937,6.6032,2017-03-21 18:09:41:839
-6.7564,-2.8874,4.5203,2017-03-21 18:09:41:849
-6.7564,-2.8874,4.5203,2017-03-21 18:09:41:860
-6.0861,-1.6664,0.067,2017-03-21 18:09:41:869
-6.0861,-1.6664,0.067,2017-03-21 18:09:41:879
-2.8922,0.2729,-3.5482,2017-03-21 18:09:41:889
-2.8922,0.2729,-3.5482,2017-03-21 18:09:41:899
-2.8922,0.2729,-3.5482,2017-03-21 18:09:41:909
-2.9401,0.3831,-4.4676,2017-03-21 18:09:41:919
-2.9401,0.3831,-4.4676,2017-03-21 18:09:41:931
-10.6398,2.6001,1.8292,2017-03-21 18:09:41:940
-10.6398,2.6001,1.8292,2017-03-21 18:09:41:949
-10.6398,2.6001,1.8292,2017-03-21 18:09:41:959
-10.6398,2.6001,1.8292,2017-03-21 18:09:41:971
-10.6398,2.6001,1.8292,2017-03-21 18:09:41:979
-10.6398,2.6001,1.8292,2017-03-21 18:09:41:990
-17.1233,17.9278,10.8553,2017-03-21 18:09:42:000
-17.1233,17.9278,10.8553,2017-03-21 18:09:42:012
-17.1233,17.9278,10.8553,2017-03-21 18:09:42:020
31.6801,19.417,15.0212,2017-03-21 18:09:42:029
31.6801,19.417,15.0212,2017-03-21 18:09:42:041
10.3477,20.413,13.7571,2017-03-21 18:09:42:049
10.3477,20.413,13.7571,2017-03-21 18:09:42:059
3.0406,33.2267,4.276,2017-03-21 18:09:42:070
3.0406,33.2267,4.276,2017-03-21 18:09:42:080
21.6963,22.448,-14.7387,2017-03-21 18:09:42:089
21.6963,22.448,-14.7387,2017-03-21 18:09:42:099
21.6963,22.448,-14.7387,2017-03-21 18:09:42:109
21.6963,22.448,-14.7387,2017-03-21 18:09:42:120
15.2511,13.8912,-17.1138,2017-03-21 18:09:42:129
15.2511,13.8912,-17.1138,2017-03-21 18:09:42:139
15.2511,13.8912,-17.1138,2017-03-21 18:09:42:149
15.2511,13.8912,-17.1138,2017-03-21 18:09:42:159
15.2511,13.8912,-17.1138,2017-03-21 18:09:42:169
15.2511,13.8912,-17.1138,2017-03-21 18:09:42:179
2.5666,17.4442,-21.0738,2017-03-21 18:09:42:190
2.5666,17.4442,-21.0738,2017-03-21 18:09:42:199
2.5666,17.4442,-21.0738,2017-03-21 18:09:42:209
3.1125,4.8602,1.7957,2017-03-21 18:09:42:219
3.1125,4.8602,1.7957,2017-03-21 18:09:42:229
3.1125,4.8602,1.7957,2017-03-21 18:09:42:239
3.1125,4.8602,1.7957,2017-03-21 18:09:42:249
3.1125,4.8602,1.7957,2017-03-21 18:09:42:259
1.6999,1.0104,-1.4892,2017-03-21 18:09:42:269
1.6999,1.0104,-1.4892,2017-03-21 18:09:42:279
1.6999,1.0104,-1.4892,2017-03-21 18:09:42:289
1.6999,1.0104,-1.4892,2017-03-21 18:09:42:299
0.7661,-2.2936,-1.1971,2017-03-21 18:09:42:310
0.7661,-2.2936,-1.1971,2017-03-21 18:09:42:319
0.7661,-2.2936,-1.1971,2017-03-21 18:09:42:330
0.7661,-2.2936,-1.1971,2017-03-21 18:09:42:340
0.7661,-2.2936,-1.1971,2017-03-21 18:09:42:349
0.7661,-2.2936,-1.1971,2017-03-21 18:09:42:359
3.7589,2.1883,5.9711,2017-03-21 18:09:42:370
3.7589,2.1883,5.9711,2017-03-21 18:09:42:379
3.7589,2.1883,5.9711,2017-03-21 18:09:42:389
3.7589,2.1883,5.9711,2017-03-21 18:09:42:399
4.2808,43.5841,-17.4298,2017-03-21 18:09:42:409
4.2808,43.5841,-17.4298,2017-03-21 18:09:42:419
14.7339,29.238,0.6369,2017-03-21 18:09:42:431
14.7339,29.238,0.6369,2017-03-21 18:09:42:439
14.7339,29.238,0.6369,2017-03-21 18:09:42:449
7.7093,20.3316,-34.443,2017-03-21 18:09:42:459
-8.4563,9.2656,-6.8043,2017-03-21 18:09:42:469
-8.4563,9.2656,-6.8043,2017-03-21 18:09:42:479
-8.4563,9.2656,-6.8043,2017-03-21 18:09:42:489
-8.4563,9.2656,-6.8043,2017-03-21 18:09:42:499
-6.7469,9.2751,-4.8363,2017-03-21 18:09:42:510
-6.7469,9.2751,-4.8363,2017-03-21 18:09:42:520
-6.7469,9.2751,-4.8363,2017-03-21 18:09:42:530
-6.7469,9.2751,-4.8363,2017-03-21 18:09:42:539
-0.3879,-2.5474,6.45,2017-03-21 18:09:42:553
-0.3879,-2.5474,6.45,2017-03-21 18:09:42:559
-0.3879,-2.5474,6.45,2017-03-21 18:09:42:570
-0.3879,-2.5474,6.45,2017-03-21 18:09:42:579
-5.6072,-3.62,10.4291,2017-03-21 18:09:42:589
-5.6072,-3.62,10.4291,2017-03-21 18:09:42:599
-11.5592,-3.486,5.7844,2017-03-21 18:09:42:609
-11.5592,-3.486,5.7844,2017-03-21 18:09:42:619
-10.3765,-4.4293,-3.7302,2017-03-21 18:09:42:630
-10.3765,-4.4293,-3.7302,2017-03-21 18:09:42:639
-10.3765,-4.4293,-3.7302,2017-03-21 18:09:42:649
-10.3765,-4.4293,-3.7302,2017-03-21 18:09:42:659
-0.9625,-2.964,-6.11,2017-03-21 18:09:42:670
-0.9625,-2.964,-6.11,2017-03-21 18:09:42:679
-0.9625,-2.964,-6.11,2017-03-21 18:09:42:689
-0.9625,-2.964,-6.11,2017-03-21 18:09:42:699
-16.3045,0.7709,-38.6807,2017-03-21 18:09:42:709
-16.3045,0.7709,-38.6807,2017-03-21 18:09:42:719
-4.8746,-0.5986,5.8658,2017-03-21 18:09:42:729
-4.8746,-0.5986,5.8658,2017-03-21 18:09:42:739
-4.8746,-0.5986,5.8658,2017-03-21 18:09:42:749
-4.8746,-0.5986,5.8658,2017-03-21 18:09:42:759
-4.8746,-0.5986,5.8658,2017-03-21 18:09:42:769
-4.8746,-0.5986,5.8658,2017-03-21 18:09:42:779
-4.8746,-0.5986,5.8658,2017-03-21 18:09:42:790
-4.8746,-0.5986,5.8658,2017-03-21 18:09:42:799
-4.8746,-0.5986,5.8658,2017-03-21 18:09:42:809
-4.8746,-0.5986,5.8658,2017-03-21 18:09:42:820
-3.4285,11.3389,18.2055,2017-03-21 18:09:42:830
-3.4285,11.3389,18.2055,2017-03-21 18:09:42:839
13.374,41.4532,-7.1778,2017-03-21 18:09:42:849
19.1105,24.3011,-11.6598,2017-03-21 18:09:42:861
19.1105,24.3011,-11.6598,2017-03-21 18:09:42:870
2.3511,-5.8227,-90.9988,2017-03-21 18:09:42:882
7.4699,20.9253,2.2793,2017-03-21 18:09:42:889
7.4699,20.9253,2.2793,2017-03-21 18:09:42:901
18.4018,10.7691,-8.2313,2017-03-21 18:09:42:909
18.4018,10.7691,-8.2313,2017-03-21 18:09:42:919
9.7157,12.4786,8.3462,2017-03-21 18:09:42:929
9.7157,12.4786,8.3462,2017-03-21 18:09:42:939
5.5258,7.5513,4.4149,2017-03-21 18:09:42:949
5.5258,7.5513,4.4149,2017-03-21 18:09:42:959
4.142,2.6288,0.3639,2017-03-21 18:09:42:969
4.142,2.6288,0.3639,2017-03-21 18:09:42:979
4.2856,-0.0239,-3.0742,2017-03-21 18:09:42:989
4.2856,-0.0239,-3.0742,2017-03-21 18:09:42:999
1.968,-2.2122,-10.8553,2017-03-21 18:09:43:009
1.968,-2.2122,-10.8553,2017-03-21 18:09:43:019
1.0534,-2.3032,0.7757,2017-03-21 18:09:43:029
1.0534,-2.3032,0.7757,2017-03-21 18:09:43:039
2.715,-2.9305,4.4293,2017-03-21 18:09:43:049
3.8595,-1.3551,7.082,2017-03-21 18:09:43:059
3.8595,-1.3551,7.082,2017-03-21 18:09:43:069
2.6097,7.015,12.4786,2017-03-21 18:09:43:079
-3.9552,14.3652,10.6734,2017-03-21 18:09:43:089
-3.9552,14.3652,10.6734,2017-03-21 18:09:43:099
-8.6479,33.8636,4.0654,2017-03-21 18:09:43:109
-8.6479,33.8636,4.0654,2017-03-21 18:09:43:119
6.8522,49.4163,-4.956,2017-03-21 18:09:43:129
6.8522,49.4163,-4.956,2017-03-21 18:09:43:139
41.5059,38.7621,20.8487,2017-03-21 18:09:43:152
41.5059,38.7621,20.8487,2017-03-21 18:09:43:159
17.6836,29.147,6.426,2017-03-21 18:09:43:170
17.6836,29.147,6.426,2017-03-21 18:09:43:179
-4.367,5.0422,-9.6055,2017-03-21 18:09:43:189
-4.367,5.0422,-9.6055,2017-03-21 18:09:43:199
-2.4612,8.0158,-4.5538,2017-03-21 18:09:43:209
-2.4612,8.0158,-4.5538,2017-03-21 18:09:43:220
-1.494,4.4867,4.6735,2017-03-21 18:09:43:230
-1.494,4.4867,4.6735,2017-03-21 18:09:43:239
-0.8092,-0.5219,6.0047,2017-03-21 18:09:43:249
0.2442,-3.3615,5.9711,2017-03-21 18:09:43:259
0.2442,-3.3615,5.9711,2017-03-21 18:09:43:269
-2.7821,-8.0493,5.2146,2017-03-21 18:09:43:279
-2.7821,-8.0493,5.2146,2017-03-21 18:09:43:289
-5.5929,-7.3694,11.8417,2017-03-21 18:09:43:299
-5.5929,-7.3694,11.8417,2017-03-21 18:09:43:310
-8.0972,-5.636,11.9519,2017-03-21 18:09:43:319
-8.0972,-5.636,11.9519,2017-03-21 18:09:43:331
-5.9233,-5.0709,4.6495,2017-03-21 18:09:43:339
-5.9233,-5.0709,4.6495,2017-03-21 18:09:43:349
-2.6193,-4.2713,-7.7237,2017-03-21 18:09:43:359
-2.6193,-4.2713,-7.7237,2017-03-21 18:09:43:369
-1.9489,-3.0071,-15.7012,2017-03-21 18:09:43:379
-4.865,-1.2833,-10.1849,2017-03-21 18:09:43:390
-4.865,-1.2833,-10.1849,2017-03-21 18:09:43:399
-5.4492,0.6033,-7.7764,2017-03-21 18:09:43:409
-5.4492,0.6033,-7.7764,2017-03-21 18:09:43:419
-4.0175,-0.091,-2.9688,2017-03-21 18:09:43:430
-3.3854,-0.067,1.1492,2017-03-21 18:09:43:439
-3.3854,-0.067,1.1492,2017-03-21 18:09:43:450
-6.5793,2.988,2.1883,2017-03-21 18:09:43:459
-6.5793,2.988,2.1883,2017-03-21 18:09:43:469
-6.4739,6.6032,3.6105,2017-03-21 18:09:43:479
-6.4739,6.6032,3.6105,2017-03-21 18:09:43:489
-4.2856,23.7792,16.1704,2017-03-21 18:09:43:499
38.5227,44.4412,25.7233,2017-03-21 18:09:43:510
38.5227,44.4412,25.7233,2017-03-21 18:09:43:520
5.4444,47.0939,29.9467,2017-03-21 18:09:43:530
5.4444,47.0939,29.9467,2017-03-21 18:09:43:539
-2.7246,45.0254,11.8944,2017-03-21 18:09:43:549
-2.7246,45.0254,11.8944,2017-03-21 18:09:43:560
-2.7246,45.0254,11.8944,2017-03-21 18:09:43:569
7.106,27.5525,1.5179,2017-03-21 18:09:43:579
7.106,27.5525,1.5179,2017-03-21 18:09:43:590
10.3046,16.453,-1.4557,2017-03-21 18:09:43:599
10.3046,16.453,-1.4557,2017-03-21 18:09:43:609
12.0716,10.8122,-44.1156,2017-03-21 18:09:43:619
12.0716,10.8122,-44.1156,2017-03-21 18:09:43:629
28.5916,7.8721,-26.2835,2017-03-21 18:09:43:639
28.5916,7.8721,-26.2835,2017-03-21 18:09:43:649
12.1051,10.7356,-2.3655,2017-03-21 18:09:43:659
12.1051,10.7356,-2.3655,2017-03-21 18:09:43:669
2.1739,9.6486,5.4827,2017-03-21 18:09:43:679
1.7765,7.1539,3.1125,2017-03-21 18:09:43:690
1.7765,7.1539,3.1125,2017-03-21 18:09:43:699
-2.059,0.0287,-26.8151,2017-03-21 18:09:43:710
-2.059,0.0287,-26.8151,2017-03-21 18:09:43:719
-2.059,0.0287,-26.8151,2017-03-21 18:09:43:734
-2.059,0.0287,-26.8151,2017-03-21 18:09:43:739
-2.059,0.0287,-26.8151,2017-03-21 18:09:43:749
-2.059,0.0287,-26.8151,2017-03-21 18:09:43:760
-2.059,0.0287,-26.8151,2017-03-21 18:09:43:770
-2.059,0.0287,-26.8151,2017-03-21 18:09:43:784
-2.059,0.0287,-26.8151,2017-03-21 18:09:43:790
-2.059,0.0287,-26.8151,2017-03-21 18:09:43:800
-2.059,0.0287,-26.8151,2017-03-21 18:09:43:809
-2.059,0.0287,-26.8151,2017-03-21 18:09:43:823
-2.059,0.0287,-26.8151,2017-03-21 18:09:43:829
-2.059,0.0287,-26.8151,2017-03-21 18:09:43:839
-2.059,0.0287,-26.8151,2017-03-21 18:09:43:852
-2.059,0.0287,-26.8151,2017-03-21 18:09:43:859
-2.059,0.0287,-26.8151,2017-03-21 18:09:43:869
-2.059,0.0287,-26.8151,2017-03-21 18:09:43:879
-2.059,0.0287,-26.8151,2017-03-21 18:09:43:889
-2.059,0.0287,-26.8151,2017-03-21 18:09:43:899
-2.059,0.0287,-26.8151,2017-03-21 18:09:43:909
-2.059,0.0287,-26.8151,2017-03-21 18:09:43:919
-2.059,0.0287,-26.8151,2017-03-21 18:09:43:929
-2.059,0.0287,-26.8151,2017-03-21 18:09:43:939
-2.059,0.0287,-26.8151,2017-03-21 18:09:43:950
-2.059,0.0287,-26.8151,2017-03-21 18:09:43:959
-2.059,0.0287,-26.8151,2017-03-21 18:09:43:970
-2.059,0.0287,-26.8151,2017-03-21 18:09:43:979
-2.059,0.0287,-26.8151,2017-03-21 18:09:43:989
-3.7541,2.3655,-1.743,2017-03-21 18:09:43:999
-3.7541,2.3655,-1.743,2017-03-21 18:09:44:009
-3.7541,2.3655,-1.743,2017-03-21 18:09:44:019
4.2856,10.1658,8.0972,2017-03-21 18:09:44:029
4.2856,10.1658,8.0972,2017-03-21 18:09:44:039
4.2856,10.1658,8.0972,2017-03-21 18:09:44:049
-7.9296,-3.3854,2.6193,2017-03-21 18:09:44:059
-1.5945,-4.1372,-0.2825,2017-03-21 18:09:44:069
-1.5945,-4.1372,-0.2825,2017-03-21 18:09:44:079
-1.5945,-4.1372,-0.2825,2017-03-21 18:09:44:089
4.6783,-4.6591,-16.8025,2017-03-21 18:09:44:099
4.6783,-4.6591,-16.8025,2017-03-21 18:09:44:109
-1.6759,-2.9544,-20.3794,2017-03-21 18:09:44:119
-5.0757,-2.0638,-3.3088,2017-03-21 18:09:44:129
-5.0757,-2.0638,-3.3088,2017-03-21 18:09:44:139
-4.3144,2.0303,-0.2298,2017-03-21 18:09:44:150
-3.5003,3.0933,7.7428,2017-03-21 18:09:44:159
-3.5003,3.0933,7.7428,2017-03-21 18:09:44:169
6.4548,8.2887,19.5367,2017-03-21 18:09:44:179
6.4548,8.2887,19.5367,2017-03-21 18:09:44:190
5.1523,8.5042,13.0915,2017-03-21 18:09:44:200
5.1523,8.5042,13.0915,2017-03-21 18:09:44:209
4.5346,7.9823,10.1371,2017-03-21 18:09:44:219
5.1523,11.3102,11.473,2017-03-21 18:09:44:229
2.4517,18.6844,18.579,2017-03-21 18:09:44:241
2.4517,18.6844,18.579,2017-03-21 18:09:44:250
-15.1074,47.8505,21.2653,2017-03-21 18:09:44:259
-15.1074,47.8505,21.2653,2017-03-21 18:09:44:269
-8.5425,54.3149,6.8953,2017-03-21 18:09:44:279
-8.5425,54.3149,6.8953,2017-03-21 18:09:44:290
-8.5425,54.3149,6.8953,2017-03-21 18:09:44:299
26.9587,48.4108,-15.1361,2017-03-21 18:09:44:309
21.1695,23.5398,-24.5549,2017-03-21 18:09:44:320
21.1695,23.5398,-24.5549,2017-03-21 18:09:44:330
-12.2248,-14.8871,-29.238,2017-03-21 18:09:44:339
-12.2248,-14.8871,-29.238,2017-03-21 18:09:44:349
6.0813,19.8767,4.7836,2017-03-21 18:09:44:359
6.0813,19.8767,4.7836,2017-03-21 18:09:44:369
27.8302,8.1642,-5.9999,2017-03-21 18:09:44:379
27.8302,8.1642,-5.9999,2017-03-21 18:09:44:389
9.414,5.0278,0.5363,2017-03-21 18:09:44:399
9.414,5.0278,0.5363,2017-03-21 18:09:44:409
4.4819,2.4134,-1.3503,2017-03-21 18:09:44:419
4.4819,2.4134,-1.3503,2017-03-21 18:09:44:429
0.7183,1.3455,-3.9552,2017-03-21 18:09:44:439
0.7183,1.3455,-3.9552,2017-03-21 18:09:44:449
-0.1389,-0.2442,-5.1188,2017-03-21 18:09:44:459
-0.1389,-0.2442,-5.1188,2017-03-21 18:09:44:469
2.4852,-2.6193,-1.4269,2017-03-21 18:09:44:479
2.4852,-2.6193,-1.4269,2017-03-21 18:09:44:489
2.1213,-0.9002,4.5873,2017-03-21 18:09:44:499
2.1213,-0.9002,4.5873,2017-03-21 18:09:44:509
1.4509,1.4413,8.6143,2017-03-21 18:09:44:519
1.4509,1.4413,8.6143,2017-03-21 18:09:44:529
-3.9792,9.6726,12.2679,2017-03-21 18:09:44:539
-3.9792,9.6726,12.2679,2017-03-21 18:09:44:549
-11.6885,20.4608,10.9559,2017-03-21 18:09:44:559
-11.6885,20.4608,10.9559,2017-03-21 18:09:44:569
11.5544,45.078,-1.3216,2017-03-21 18:09:44:579
11.5544,45.078,-1.3216,2017-03-21 18:09:44:589
30.6458,51.4227,-0.6033,2017-03-21 18:09:44:599
44.7668,42.6216,5.0374,2017-03-21 18:09:44:609
44.7668,42.6216,5.0374,2017-03-21 18:09:44:619
6.7756,26.9874,-8.825,2017-03-21 18:09:44:629
6.7756,26.9874,-8.825,2017-03-21 18:09:44:639
-8.0685,8.6095,-66.7025,2017-03-21 18:09:44:650
-8.0685,8.6095,-66.7025,2017-03-21 18:09:44:659
-8.8442,7.4891,-7.944,2017-03-21 18:09:44:669
-8.8442,7.4891,-7.944,2017-03-21 18:09:44:679
-4.9656,7.4508,-1.9201,2017-03-21 18:09:44:689
-3.5961,2.6671,6.9576,2017-03-21 18:09:44:700
-3.5961,2.6671,6.9576,2017-03-21 18:09:44:709
-3.5961,2.6671,6.9576,2017-03-21 18:09:44:719
-3.644,-2.897,8.418,2017-03-21 18:09:44:729
-3.644,-2.897,8.418,2017-03-21 18:09:44:739
-6.9336,-4.3718,9.9503,2017-03-21 18:09:44:749
-6.9336,-4.3718,9.9503,2017-03-21 18:09:44:759
-12.9047,-2.2314,12.5696,2017-03-21 18:09:44:769
-16.0747,-2.1787,9.3278,2017-03-21 18:09:44:779
-16.0747,-2.1787,9.3278,2017-03-21 18:09:44:789
-16.0747,-2.1787,9.3278,2017-03-21 18:09:44:799
-10.8409,-3.1556,0.4262,2017-03-21 18:09:44:809
-10.8409,-3.1556,0.4262,2017-03-21 18:09:44:819
1.7286,-3.6631,-9.7252,2017-03-21 18:09:44:829
1.7286,-3.6631,-9.7252,2017-03-21 18:09:44:839
3.4812,-2.1261,-9.414,2017-03-21 18:09:44:849
3.4812,-2.1261,-9.414,2017-03-21 18:09:44:859
-2.5666,-0.2346,-4.6735,2017-03-21 18:09:44:869
-2.5666,-0.2346,-4.6735,2017-03-21 18:09:44:879
-2.8683,0.5746,-7.6136,2017-03-21 18:09:44:890
-2.8683,0.5746,-7.6136,2017-03-21 18:09:44:899
-4.3574,4.3096,0.2777,2017-03-21 18:09:44:909
-4.3574,4.3096,0.2777,2017-03-21 18:09:44:919
-2.9928,13.8002,2.8252,2017-03-21 18:09:44:929
-2.9928,13.8002,2.8252,2017-03-21 18:09:44:939
10.0844,24.3538,5.9951,2017-03-21 18:09:44:949
13.3453,28.6011,7.8386,2017-03-21 18:09:44:959
13.3453,28.6011,7.8386,2017-03-21 18:09:44:969
13.3453,28.6011,7.8386,2017-03-21 18:09:44:980
13.3453,28.6011,7.8386,2017-03-21 18:09:44:989
13.3453,28.6011,7.8386,2017-03-21 18:09:44:999
13.3453,28.6011,7.8386,2017-03-21 18:09:45:009
13.3453,28.6011,7.8386,2017-03-21 18:09:45:020
7.9487,31.5173,16.9893,2017-03-21 18:09:45:029
7.9487,31.5173,16.9893,2017-03-21 18:09:45:039
16.4721,34.9745,-17.9757,2017-03-21 18:09:45:049
17.7315,5.6168,-156.734,2017-03-21 18:09:45:059
17.7315,5.6168,-156.734,2017-03-21 18:09:45:069
17.7315,5.6168,-156.734,2017-03-21 18:09:45:079
-13.9726,-1.5802,70.1693,2017-03-21 18:09:45:089
26.6283,9.6726,-33.2411,2017-03-21 18:09:45:099
13.441,13.9055,5.0805,2017-03-21 18:09:45:109
13.441,13.9055,5.0805,2017-03-21 18:09:45:119
7.106,8.8633,8.2696,2017-03-21 18:09:45:129
7.106,8.8633,8.2696,2017-03-21 18:09:45:139
4.1994,3.8451,3.7589,2017-03-21 18:09:45:149
4.1994,3.8451,3.7589,2017-03-21 18:09:45:159
2.1404,0.1389,0.0048,2017-03-21 18:09:45:169
2.1404,0.1389,0.0048,2017-03-21 18:09:45:179
2.0016,-2.0686,-2.0255,2017-03-21 18:09:45:189
1.1923,-2.375,-2.3798,2017-03-21 18:09:45:199
1.1923,-2.375,-2.3798,2017-03-21 18:09:45:209
2.7485,-3.7254,-3.1412,2017-03-21 18:09:45:220
2.7485,-3.7254,-3.1412,2017-03-21 18:09:45:229
1.0582,-2.7964,0.2394,2017-03-21 18:09:45:239
1.1971,-3.2944,1.5083,2017-03-21 18:09:45:249
1.1971,-3.2944,1.5083,2017-03-21 18:09:45:259
2.7485,-0.8523,2.3942,2017-03-21 18:09:45:269
2.7485,-0.8523,2.3942,2017-03-21 18:09:45:279
2.7485,-0.8523,2.3942,2017-03-21 18:09:45:290
2.4277,7.4843,4.6926,2017-03-21 18:09:45:299
2.4277,7.4843,4.6926,2017-03-21 18:09:45:309
-1.0918,40.4524,0.905,2017-03-21 18:09:45:319
-1.0918,40.4524,0.905,2017-03-21 18:09:45:330
-1.0918,40.4524,0.905,2017-03-21 18:09:45:339
17.0036,63.7624,11.2192,2017-03-21 18:09:45:350
41.6926,42.2529,21.4712,2017-03-21 18:09:45:359
41.6926,42.2529,21.4712,2017-03-21 18:09:45:370
13.7523,22.0602,-1.3982,2017-03-21 18:09:45:379
13.7523,22.0602,-1.3982,2017-03-21 18:09:45:389
1.7861,3.9935,-56.4553,2017-03-21 18:09:45:399
1.7861,3.9935,-56.4553,2017-03-21 18:09:45:410
-14.8105,5.8658,-10.0365,2017-03-21 18:09:45:419
-14.8105,5.8658,-10.0365,2017-03-21 18:09:45:429
-6.1579,6.6176,-2.6911,2017-03-21 18:09:45:439
-3.304,4.549,2.1213,2017-03-21 18:09:45:449
-3.304,4.549,2.1213,2017-03-21 18:09:45:459
0.5267,-0.3783,3.4046,2017-03-21 18:09:45:469
0.5267,-0.3783,3.4046,2017-03-21 18:09:45:479
1.1253,-3.6823,3.0215,2017-03-21 18:09:45:489
1.1253,-3.6823,3.0215,2017-03-21 18:09:45:499
0.0575,-4.5633,2.6145,2017-03-21 18:09:45:511
0.0575,-4.5633,2.6145,2017-03-21 18:09:45:519
-2.2745,-6.3829,5.1906,2017-03-21 18:09:45:529
-2.2745,-6.3829,5.1906,2017-03-21 18:09:45:539
-2.1117,-3.486,5.0135,2017-03-21 18:09:45:549
-2.1117,-3.486,5.0135,2017-03-21 18:09:45:560
-2.1117,-3.486,5.0135,2017-03-21 18:09:45:569
-3.6727,-1.9537,0.1963,2017-03-21 18:09:45:579
-3.8116,-0.4836,-1.8483,2017-03-21 18:09:45:590
-3.8116,-0.4836,-1.8483,2017-03-21 18:09:45:599
-4.3718,0.4501,-3.237,2017-03-21 18:09:45:610
-4.3718,0.4501,-3.237,2017-03-21 18:09:45:619
-5.6024,2.0686,-4.6639,2017-03-21 18:09:45:629
-5.6024,2.0686,-4.6639,2017-03-21 18:09:45:639
-15.2702,11.4874,-5.2864,2017-03-21 18:09:45:649
-15.2702,11.4874,-5.2864,2017-03-21 18:09:45:659
-19.3212,22.1799,-0.6512,2017-03-21 18:09:45:669
-19.3212,22.1799,-0.6512,2017-03-21 18:09:45:679
-13.7523,25.2588,1.6664,2017-03-21 18:09:45:699
-13.7523,26.9252,6.5984,2017-03-21 18:09:45:700
-0.2873,26.9252,6.5984,2017-03-21 18:09:45:709
45.0301,16.3955,33.8732,2017-03-21 18:09:45:719
45.0301,16.3955,33.8732,2017-03-21 18:09:45:729
6.6511,30.4782,18.2678,2017-03-21 18:09:45:739
6.6511,30.4782,18.2678,2017-03-21 18:09:45:749
4.4053,35.2427,-2.0542,2017-03-21 18:09:45:759
4.4053,35.2427,-2.0542,2017-03-21 18:09:45:769
13.9343,18.3204,-8.9735,2017-03-21 18:09:45:779
13.9343,18.3204,-8.9735,2017-03-21 18:09:45:789
-14.0971,-3.0742,-81.1586,2017-03-21 18:09:45:800
-14.0971,-3.0742,-81.1586,2017-03-21 18:09:45:810
13.647,11.4012,3.462,2017-03-21 18:09:45:819
13.647,11.4012,3.462,2017-03-21 18:09:45:830
23.104,9.2033,-28.5485,2017-03-21 18:09:45:839
23.104,9.2033,-28.5485,2017-03-21 18:09:45:849
11.2911,5.7748,-0.4357,2017-03-21 18:09:45:859
11.2911,5.7748,-0.4357,2017-03-21 18:09:45:869
-0.7183,8.7436,9.2751,2017-03-21 18:09:45:879
-0.7183,8.7436,9.2751,2017-03-21 18:09:45:889
0.0479,3.9361,3.9313,2017-03-21 18:09:45:899
0.0479,3.9361,3.9313,2017-03-21 18:09:45:909
0.0479,3.9361,3.9313,2017-03-21 18:09:45:920
0.3974,1.5371,1.7861,2017-03-21 18:09:45:930
0.3974,1.5371,1.7861,2017-03-21 18:09:45:939
0.1341,0.1053,0.4741,2017-03-21 18:09:45:949
0.1341,0.1053,0.4741,2017-03-21 18:09:45:959
-0.0431,-1.0151,0.1628,2017-03-21 18:09:45:969
-0.0431,-1.0151,0.1628,2017-03-21 18:09:45:980
0.4549,-1.968,0.6943,2017-03-21 18:09:45:989
0.4549,-1.968,0.6943,2017-03-21 18:09:45:999
2.8108,-1.5706,2.0016,2017-03-21 18:09:46:009
2.8108,-1.5706,2.0016,2017-03-21 18:09:46:019
4.0558,12.4929,-13.5272,2017-03-21 18:09:46:029
4.0558,12.4929,-13.5272,2017-03-21 18:09:46:039
12.4163,24.9907,7.8913,2017-03-21 18:09:46:050
13.6134,42.7892,6.4691,2017-03-21 18:09:46:059
13.6134,42.7892,6.4691,2017-03-21 18:09:46:069
38.2689,65.1558,8.7005,2017-03-21 18:09:46:079
38.2689,65.1558,8.7005,2017-03-21 18:09:46:089
21.1647,24.7465,-17.7362,2017-03-21 18:09:46:099
21.1647,24.7465,-17.7362,2017-03-21 18:09:46:110
4.3144,7.2688,1.6807,2017-03-21 18:09:46:119
4.3144,7.2688,1.6807,2017-03-21 18:09:46:129
2.5905,6.3063,-4.2713,2017-03-21 18:09:46:139
2.5905,6.3063,-4.2713,2017-03-21 18:09:46:149
0.6512,6.5218,3.9792,2017-03-21 18:09:46:159
0.6512,6.5218,3.9792,2017-03-21 18:09:46:169
-0.3448,4.0797,6.6942,2017-03-21 18:09:46:179
-0.3448,4.0797,6.6942,2017-03-21 18:09:46:189
-1.7813,0.929,8.1259,2017-03-21 18:09:46:199
-2.5762,-0.4501,8.2839,2017-03-21 18:09:46:209
-2.5762,-0.4501,8.2839,2017-03-21 18:09:46:219
-9.6582,-2.9784,5.7604,2017-03-21 18:09:46:229
-9.6582,-2.9784,5.7604,2017-03-21 18:09:46:239
-13.7044,-1.7765,3.6105,2017-03-21 18:09:46:249
-13.7044,-1.7765,3.6105,2017-03-21 18:09:46:259
-18.6077,-3.2034,-5.2385,2017-03-21 18:09:46:269
-18.6077,-3.2034,-5.2385,2017-03-21 18:09:46:279
-10.6255,-2.8826,1.2881,2017-03-21 18:09:46:289
-10.6255,-2.8826,1.2881,2017-03-21 18:09:46:299
-3.96,-2.6624,-2.8826,2017-03-21 18:09:46:309
-3.96,-2.6624,-2.8826,2017-03-21 18:09:46:319
4.5777,-2.5091,-20.1544,2017-03-21 18:09:46:329
4.5777,-2.5091,-20.1544,2017-03-21 18:09:46:339
-5.6407,0.2825,-20.0347,2017-03-21 18:09:46:349
-1.2881,-0.0287,-12.5552,2017-03-21 18:09:46:359
-1.2881,-0.0287,-12.5552,2017-03-21 18:09:46:369
-6.7086,1.6472,12.809,2017-03-21 18:09:46:379
-6.7086,1.6472,12.809,2017-03-21 18:09:46:390
0.158,11.4299,25.5509,2017-03-21 18:09:46:400
0.158,11.4299,25.5509,2017-03-21 18:09:46:409
0.158,18.8136,31.637,2017-03-21 18:09:46:419
-3.6057,18.8136,31.637,2017-03-21 18:09:46:429
4.9321,18.5646,18.761,2017-03-21 18:09:46:440
4.9321,18.5646,18.761,2017-03-21 18:09:46:449
12.2056,19.6516,17.0036,2017-03-21 18:09:46:461
12.2056,19.6516,17.0036,2017-03-21 18:09:46:469
18.4928,22.9891,19.6468,2017-03-21 18:09:46:480
-9.7348,36.2339,7.1108,2017-03-21 18:09:46:489
-9.7348,36.2339,7.1108,2017-03-21 18:09:46:499
-9.7348,36.2339,7.1108,2017-03-21 18:09:46:509
-1.154,46.2416,-7.1778,2017-03-21 18:09:46:519
-1.154,46.2416,-7.1778,2017-03-21 18:09:46:529
27.021,32.1685,-19.4361,2017-03-21 18:09:46:539
26.2261,18.1864,-27.2556,2017-03-21 18:09:46:549
26.2261,18.1864,-27.2556,2017-03-21 18:09:46:559
-4.276,-15.4618,-28.1845,2017-03-21 18:09:46:569
-19.7139,-12.3158,-27.8972,2017-03-21 18:09:46:579
-19.7139,-12.3158,-27.8972,2017-03-21 18:09:46:589
-0.249,21.0594,17.99,2017-03-21 18:09:46:599
23.8223,8.6718,-4.9752,2017-03-21 18:09:46:610
23.8223,8.6718,-4.9752,2017-03-21 18:09:46:619
9.1315,5.1475,3.9648,2017-03-21 18:09:46:629
9.1315,5.1475,3.9648,2017-03-21 18:09:46:639
2.6432,2.4612,1.8483,2017-03-21 18:09:46:649
2.6432,2.4612,1.8483,2017-03-21 18:09:46:660
1.7957,1.5275,0.158,2017-03-21 18:09:46:669
1.7957,1.5275,0.158,2017-03-21 18:09:46:679
4.2521,-1.4509,-2.9688,2017-03-21 18:09:46:689
4.2521,-1.4509,-2.9688,2017-03-21 18:09:46:699
6.2728,-3.3615,-4.4005,2017-03-21 18:09:46:709
6.2728,-3.3615,-4.4005,2017-03-21 18:09:46:719
7.1012,-4.1611,-1.1061,2017-03-21 18:09:46:729
7.1012,-4.1611,-1.1061,2017-03-21 18:09:46:739
4.3144,-3.3423,2.3846,2017-03-21 18:09:46:750
4.3144,-3.3423,2.3846,2017-03-21 18:09:46:759
-1.2354,6.1148,8.2887,2017-03-21 18:09:46:769
-1.2354,6.1148,8.2887,2017-03-21 18:09:46:779
-7.9631,20.4178,22.8407,2017-03-21 18:09:46:789
-7.9631,20.4178,22.8407,2017-03-21 18:09:46:799
-3.8211,29.2811,16.2518,2017-03-21 18:09:46:809
-3.8211,29.2811,16.2518,2017-03-21 18:09:46:819
12.6941,45.1355,-2.8108,2017-03-21 18:09:46:829
12.6941,45.1355,-2.8108,2017-03-21 18:09:46:839
29.736,38.1875,6.4165,2017-03-21 18:09:46:849
29.736,38.1875,6.4165,2017-03-21 18:09:46:859
10.2376,28.3521,6.0382,2017-03-21 18:09:46:869
10.2376,28.3521,6.0382,2017-03-21 18:09:46:879
4.4101,17.7315,-18.3635,2017-03-21 18:09:46:889
4.4101,17.7315,-18.3635,2017-03-21 18:09:46:899
13.5225,0.9912,23.535,2017-03-21 18:09:46:909
13.5225,0.9912,23.535,2017-03-21 18:09:46:920
-2.9832,6.8857,1.5706,2017-03-21 18:09:46:929
-3.3806,4.3383,4.8123,2017-03-21 18:09:46:939
-3.3806,4.3383,4.8123,2017-03-21 18:09:46:949
-3.8834,-0.5076,4.8554,2017-03-21 18:09:46:959
-3.8834,-0.5076,4.8554,2017-03-21 18:09:46:969
-3.8834,-0.5076,4.8554,2017-03-21 18:09:46:979
-11.1474,-5.1667,8.1642,2017-03-21 18:09:46:989
-13.8385,-1.1109,18.0858,2017-03-21 18:09:46:999
-13.8385,-1.1109,18.0858,2017-03-21 18:09:47:009
-13.8385,-0.4118,11.4012,2017-03-21 18:09:47:019
-16.3428,-0.4118,11.4012,2017-03-21 18:09:47:029
-14.1162,-0.7949,5.7461,2017-03-21 18:09:47:040
-14.1162,-0.7949,5.7461,2017-03-21 18:09:47:049
-5.4061,-1.5897,-2.5857,2017-03-21 18:09:47:059
-5.4061,-1.5897,-2.5857,2017-03-21 18:09:47:069
0.2107,-1.336,-6.7181,2017-03-21 18:09:47:079
0.565,-1.0678,-8.6431,2017-03-21 18:09:47:089
0.565,-1.0678,-8.6431,2017-03-21 18:09:47:100
-1.6664,1.1684,-22.2804,2017-03-21 18:09:47:109
-1.6664,1.1684,-22.2804,2017-03-21 18:09:47:120
-2.5522,4.2856,-12.0428,2017-03-21 18:09:47:129
-2.5522,4.2856,-12.0428,2017-03-21 18:09:47:139
-0.3735,6.3159,0.565,2017-03-21 18:09:47:149
-0.3735,6.3159,0.565,2017-03-21 18:09:47:159
3.0119,11.6789,6.1579,2017-03-21 18:09:47:169
3.0119,11.6789,6.1579,2017-03-21 18:09:47:180
4.956,19.2877,15.0739,2017-03-21 18:09:47:189
4.956,19.2877,15.0739,2017-03-21 18:09:47:200
5.7509,29.9467,37.3256,2017-03-21 18:09:47:209
5.7509,29.9467,37.3256,2017-03-21 18:09:47:219
0.7709,35.8508,28.0361,2017-03-21 18:09:47:229
0.7709,35.8508,28.0361,2017-03-21 18:09:47:239
3.5291,45.9112,7.7859,2017-03-21 18:09:47:250
3.5291,45.9112,7.7859,2017-03-21 18:09:47:259
11.8896,43.3734,-3.8547,2017-03-21 18:09:47:270
11.8896,43.3734,-3.8547,2017-03-21 18:09:47:279
17.8081,21.9931,-28.1558,2017-03-21 18:09:47:289
17.8081,21.9931,-28.1558,2017-03-21 18:09:47:299
-15.9741,11.88,84.2328,2017-03-21 18:09:47:309
17.243,14.2311,-10.3813,2017-03-21 18:09:47:319
17.243,14.2311,-10.3813,2017-03-21 18:09:47:329
15.1936,11.133,7.6519,2017-03-21 18:09:47:339
15.1936,11.133,7.6519,2017-03-21 18:09:47:350
5.8993,6.9623,1.0774,2017-03-21 18:09:47:359
5.8993,6.9623,1.0774,2017-03-21 18:09:47:369
6.79,1.8004,-2.6719,2017-03-21 18:09:47:380
6.79,1.8004,-2.6719,2017-03-21 18:09:47:389
5.0996,-1.0726,-10.4914,2017-03-21 18:09:47:399
5.0996,-1.0726,-10.4914,2017-03-21 18:09:47:409
0.8428,-0.2203,-2.399,2017-03-21 18:09:47:419
0.8428,-0.2203,-2.399,2017-03-21 18:09:47:429
0.747,-2.5426,-0.1867,2017-03-21 18:09:47:440
0.747,-2.5426,-0.1867,2017-03-21 18:09:47:449
2.1739,-2.6767,4.2282,2017-03-21 18:09:47:460
2.8491,-2.2458,5.7748,2017-03-21 18:09:47:469
2.8491,-2.2458,5.7748,2017-03-21 18:09:47:479
-0.2682,1.0439,7.1682,2017-03-21 18:09:47:489
-0.2682,1.0439,7.1682,2017-03-21 18:09:47:499
-5.9041,8.418,10.1514,2017-03-21 18:09:47:509
-5.9041,8.418,10.1514,2017-03-21 18:09:47:519
-16.1417,24.0522,9.3326,2017-03-21 18:09:47:530
-16.1417,24.0522,9.3326,2017-03-21 18:09:47:539
0.5171,43.2776,-7.7572,2017-03-21 18:09:47:549
0.5171,43.2776,-7.7572,2017-03-21 18:09:47:560
44.7716,43.2824,5.7461,2017-03-21 18:09:47:569
44.7716,43.2824,5.7461,2017-03-21 18:09:47:579
47.1466,38.4605,14.0875,2017-03-21 18:09:47:589
5.4731,26.2357,0.7087,2017-03-21 18:09:47:600
5.4731,26.2357,0.7087,2017-03-21 18:09:47:609
5.4731,26.2357,0.7087,2017-03-21 18:09:47:620
1.2115,19.2254,-19.7043,2017-03-21 18:09:47:629
-10.7787,5.3391,-16.3189,2017-03-21 18:09:47:639
-10.7787,5.3391,-16.3189,2017-03-21 18:09:47:649
-5.4348,6.1579,-5.3822,2017-03-21 18:09:47:659
-5.4348,6.1579,-5.3822,2017-03-21 18:09:47:669
-1.3982,2.0399,3.6583,2017-03-21 18:09:47:679
-0.3304,-1.4988,5.7652,2017-03-21 18:09:47:689
-0.3304,-1.4988,5.7652,2017-03-21 18:09:47:699
-0.9002,-3.3519,5.9999,2017-03-21 18:09:47:709
-0.9002,-3.3519,5.9999,2017-03-21 18:09:47:719
-4.6591,-6.7373,9.7109,2017-03-21 18:09:47:729
-5.1332,-7.0677,9.5624,2017-03-21 18:09:47:739
-5.1332,-7.0677,9.5624,2017-03-21 18:09:47:749
-5.8945,-3.2226,6.7038,2017-03-21 18:09:47:759
-5.8945,-3.2226,6.7038,2017-03-21 18:09:47:770
-5.7221,-2.0925,0.3974,2017-03-21 18:09:47:779
-5.7221,-2.0925,0.3974,2017-03-21 18:09:47:789
-3.1412,-0.7087,-2.3176,2017-03-21 18:09:47:799
-3.1412,-0.7087,-2.3176,2017-03-21 18:09:47:810
-3.4907,-0.2729,-1.2258,2017-03-21 18:09:47:819
-3.4907,-0.2729,-1.2258,2017-03-21 18:09:47:829
-4.5586,0.838,-5.3295,2017-03-21 18:09:47:839
-4.5586,0.838,-5.3295,2017-03-21 18:09:47:849
-11.315,6.0765,-10.2185,2017-03-21 18:09:47:859
-11.315,6.0765,-10.2185,2017-03-21 18:09:47:870
-14.121,15.2606,-3.5338,2017-03-21 18:09:47:879
-14.121,15.2606,-3.5338,2017-03-21 18:09:47:890
-5.6503,21.4425,0.3448,2017-03-21 18:09:47:899
-5.6503,21.4425,0.3448,2017-03-21 18:09:47:909
22.9077,21.6675,8.9735,2017-03-21 18:09:47:919
22.9077,21.6675,8.9735,2017-03-21 18:09:47:929
36.3248,19.0818,20.9924,2017-03-21 18:09:47:939
36.3248,19.0818,20.9924,2017-03-21 18:09:47:949
1.9728,32.3983,27.8015,2017-03-21 18:09:47:959
1.9728,32.3983,27.8015,2017-03-21 18:09:47:969
2.6097,40.9504,8.6957,2017-03-21 18:09:47:979
2.6097,40.9504,8.6957,2017-03-21 18:09:47:989
17.4058,28.5437,-6.9623,2017-03-21 18:09:47:999
17.4058,28.5437,-6.9623,2017-03-21 18:09:48:009
-3.96,-7.1395,-114.4668,2017-03-21 18:09:48:019
-3.96,-7.1395,-114.4668,2017-03-21 18:09:48:030
3.5674,13.4075,2.5283,2017-03-21 18:09:48:039
3.5674,13.4075,2.5283,2017-03-21 18:09:48:049
22.0123,7.7381,-18.5646,2017-03-21 18:09:48:059
22.0123,7.7381,-18.5646,2017-03-21 18:09:48:070
6.292,10.9942,6.1244,2017-03-21 18:09:48:079
6.292,10.9942,6.1244,2017-03-21 18:09:48:090
3.7972,6.9097,1.5179,2017-03-21 18:09:48:099
3.7972,6.9097,1.5179,2017-03-21 18:09:48:110
8.3606,-0.4788,-14.6573,2017-03-21 18:09:48:119
8.3606,-0.4788,-14.6573,2017-03-21 18:09:48:130
1.9585,1.8196,-0.2969,2017-03-21 18:09:48:140
1.9585,1.8196,-0.2969,2017-03-21 18:09:48:149
-0.1149,0.9337,0.0718,2017-03-21 18:09:48:159
-0.1149,0.9337,0.0718,2017-03-21 18:09:48:169
-0.4597,-0.1053,-0.4118,2017-03-21 18:09:48:179
-0.4597,-0.1053,-0.4118,2017-03-21 18:09:48:189
0.0383,-2.6001,3.7876,2017-03-21 18:09:48:199
0.6991,-1.4269,5.5641,2017-03-21 18:09:48:209
0.6991,-1.4269,5.5641,2017-03-21 18:09:48:219
1.3743,3.4668,8.0541,2017-03-21 18:09:48:229
-0.249,8.2456,7.2065,2017-03-21 18:09:48:240
-0.249,8.2456,7.2065,2017-03-21 18:09:48:249
-0.249,8.2456,7.2065,2017-03-21 18:09:48:259
-4.7884,43.7469,-44.8913,2017-03-21 18:09:48:269
-4.7884,43.7469,-44.8913,2017-03-21 18:09:48:279
24.3921,50.5129,12.5648,2017-03-21 18:09:48:290
24.3921,50.5129,12.5648,2017-03-21 18:09:48:299
30.4207,43.8283,28.0409,2017-03-21 18:09:48:309
30.4207,43.8283,28.0409,2017-03-21 18:09:48:319
12.6318,22.539,-7.9918,2017-03-21 18:09:48:329
12.6318,22.539,-7.9918,2017-03-21 18:09:48:339
0.3926,7.106,-41.3431,2017-03-21 18:09:48:349
0.3926,7.106,-41.3431,2017-03-21 18:09:48:359
-3.869,3.9983,-2.1883,2017-03-21 18:09:48:369
-3.869,3.9983,-2.1883,2017-03-21 18:09:48:379
-4.5633,4.2138,3.4333,2017-03-21 18:09:48:389
-4.5633,4.2138,3.4333,2017-03-21 18:09:48:399
-3.6152,2.0111,5.7461,2017-03-21 18:09:48:410
-3.6152,2.0111,5.7461,2017-03-21 18:09:48:419
-2.1979,-2.3511,6.45,2017-03-21 18:09:48:429
-2.1979,-2.3511,6.45,2017-03-21 18:09:48:439
-3.6775,-5.5881,7.2688,2017-03-21 18:09:48:449
-3.6775,-5.5881,7.2688,2017-03-21 18:09:48:459
-10.9607,-3.4141,7.4364,2017-03-21 18:09:48:469
-11.9902,-2.5331,7.2592,2017-03-21 18:09:48:479
-11.9902,-2.5331,7.2592,2017-03-21 18:09:48:489
-12.2439,-2.2075,3.1364,2017-03-21 18:09:48:500
-12.2439,-2.2075,3.1364,2017-03-21 18:09:48:509
-7.5274,-1.7621,-3.6488,2017-03-21 18:09:48:519
-7.5274,-1.7621,-3.6488,2017-03-21 18:09:48:529
-1.2354,-0.4214,-5.2768,2017-03-21 18:09:48:539
-1.2354,-0.4214,-5.2768,2017-03-21 18:09:48:549
0.4166,0.0431,-8.8011,2017-03-21 18:09:48:559
-2.5235,1.0582,-8.7819,2017-03-21 18:09:48:569
-2.5235,1.0582,-8.7819,2017-03-21 18:09:48:579
-4.7262,-0.5555,-10.8218,2017-03-21 18:09:48:589
-4.7262,-0.5555,-10.8218,2017-03-21 18:09:48:599
-5.9616,5.6168,4.0941,2017-03-21 18:09:48:610
-5.9616,5.6168,4.0941,2017-03-21 18:09:48:620
-0.0192,21.0067,17.765,2017-03-21 18:09:48:629
-0.0192,21.0067,17.765,2017-03-21 18:09:48:640
12.9191,24.3299,22.7641,2017-03-21 18:09:48:649
12.9191,24.3299,22.7641,2017-03-21 18:09:48:660
13.4746,20.9062,24.124,2017-03-21 18:09:48:669
13.4746,20.9062,24.124,2017-03-21 18:09:48:679
5.8179,22.697,21.8591,2017-03-21 18:09:48:689
5.8179,22.697,21.8591,2017-03-21 18:09:48:699
-6.201,38.834,6.5122,2017-03-21 18:09:48:710
-6.201,38.834,6.5122,2017-03-21 18:09:48:719
8.4707,45.2073,-7.3071,2017-03-21 18:09:48:729
8.4707,45.2073,-7.3071,2017-03-21 18:09:48:739
18.2199,40.0406,-9.5816,2017-03-21 18:09:48:749
15.299,18.5407,-26.0776,2017-03-21 18:09:48:759
15.299,18.5407,-26.0776,2017-03-21 18:09:48:770
15.299,18.5407,-26.0776,2017-03-21 18:09:48:779
-13.0819,-13.2735,-42.6647,2017-03-21 18:09:48:789
18.172,6.0717,-25.4312,2017-03-21 18:09:48:800
18.172,6.0717,-25.4312,2017-03-21 18:09:48:810
14.9446,10.0365,1.9297,2017-03-21 18:09:48:819
14.9446,10.0365,1.9297,2017-03-21 18:09:48:829
6.1962,7.5178,1.2881,2017-03-21 18:09:48:839
6.1962,7.5178,1.2881,2017-03-21 18:09:48:849
6.1962,7.5178,1.2881,2017-03-21 18:09:48:859
7.288,3.0406,-4.4053,2017-03-21 18:09:48:869
9.7875,0.4166,-18.105,2017-03-21 18:09:48:879
9.7875,0.4166,-18.105,2017-03-21 18:09:48:889
3.802,-0.0622,-6.7277,2017-03-21 18:09:48:900
3.802,-0.0622,-6.7277,2017-03-21 18:09:48:909
1.1349,-0.1437,1.2115,2017-03-21 18:09:48:919
1.1349,-0.1437,1.2115,2017-03-21 18:09:48:930
3.5913,-1.063,6.9049,2017-03-21 18:09:48:939
4.3958,-1.494,8.0062,2017-03-21 18:09:48:949
4.3958,-1.494,8.0062,2017-03-21 18:09:48:959
-0.7949,3.9073,10.0509,2017-03-21 18:09:48:969
-0.7949,3.9073,10.0509,2017-03-21 18:09:48:979
-8.9783,12.5743,9.9455,2017-03-21 18:09:48:989
-8.9783,12.5743,9.9455,2017-03-21 18:09:48:999
-16.5918,22.1703,4.8698,2017-03-21 18:09:49:009
-16.5918,22.1703,4.8698,2017-03-21 18:09:49:019
1.561,33.0448,-5.4061,2017-03-21 18:09:49:029
1.561,33.0448,-5.4061,2017-03-21 18:09:49:039
30.0377,37.498,10.6973,2017-03-21 18:09:49:050
30.0377,37.498,10.6973,2017-03-21 18:09:49:059
28.8932,38.312,14.2359,2017-03-21 18:09:49:070
28.8932,38.312,14.2359,2017-03-21 18:09:49:079
6.0525,23.6308,-7.6567,2017-03-21 18:09:49:089
6.0525,23.6308,-7.6567,2017-03-21 18:09:49:099
-4.8363,-11.4826,32.9394,2017-03-21 18:09:49:109
-4.8363,-11.4826,32.9394,2017-03-21 18:09:49:119
-6.1483,7.6614,-1.9201,2017-03-21 18:09:49:129
-6.1483,7.6614,-1.9201,2017-03-21 18:09:49:139
-3.9744,2.9401,5.1763,2017-03-21 18:09:49:149
-3.9744,2.9401,5.1763,2017-03-21 18:09:49:159
-3.4189,-1.901,5.7269,2017-03-21 18:09:49:170
-6.4931,-4.8315,9.1459,2017-03-21 18:09:49:179
-6.4931,-4.8315,9.1459,2017-03-21 18:09:49:190
-9.3709,-4.3239,10.0413,2017-03-21 18:09:49:199
-9.3709,-4.3239,10.0413,2017-03-21 18:09:49:209
-14.7531,-2.1069,13.0005,2017-03-21 18:09:49:220
-14.7531,-2.1069,13.0005,2017-03-21 18:09:49:229
-14.6956,-2.3703,6.0286,2017-03-21 18:09:49:239
-14.6956,-2.3703,6.0286,2017-03-21 18:09:49:249
-14.6956,-2.3703,6.0286,2017-03-21 18:09:49:259
-3.3758,-2.873,-4.9895,2017-03-21 18:09:49:269
2.4373,-2.5139,-9.1746,2017-03-21 18:09:49:280
2.4373,-2.5139,-9.1746,2017-03-21 18:09:49:290
2.4373,-2.5139,-9.1746,2017-03-21 18:09:49:299
-3.4764,-0.4597,-14.5472,2017-03-21 18:09:49:309
-3.4764,-0.4597,-14.5472,2017-03-21 18:09:49:319
-2.6911,-1.0918,-3.2513,2017-03-21 18:09:49:329
-2.6911,-1.0918,-3.2513,2017-03-21 18:09:49:340
-4.7597,4.9895,1.2402,2017-03-21 18:09:49:349
-4.7597,4.9895,1.2402,2017-03-21 18:09:49:359
3.3567,17.2287,12.7707,2017-03-21 18:09:49:369
3.3567,17.2287,12.7707,2017-03-21 18:09:49:379
9.663,21.5574,26.4511,2017-03-21 18:09:49:389
9.663,21.5574,26.4511,2017-03-21 18:09:49:399
9.9647,22.0219,27.3657,2017-03-21 18:09:49:410
-2.739,33.7487,22.5103,2017-03-21 18:09:49:419
-2.739,33.7487,22.5103,2017-03-21 18:09:49:429
-2.739,33.7487,22.5103,2017-03-21 18:09:49:439
-3.0885,43.2106,10.5153,2017-03-21 18:09:49:449
-3.0885,43.2106,10.5153,2017-03-21 18:09:49:460
12.402,41.6974,5.6551,2017-03-21 18:09:49:469
12.402,41.6974,5.6551,2017-03-21 18:09:49:479
19.7617,22.721,-4.1611,2017-03-21 18:09:49:490
19.7617,22.721,-4.1611,2017-03-21 18:09:49:499
-17.4298,-4.7932,-76.6528,2017-03-21 18:09:49:510
-17.4298,-4.7932,-76.6528,2017-03-21 18:09:49:519
27.6243,7.3167,-32.1206,2017-03-21 18:09:49:529
27.6243,7.3167,-32.1206,2017-03-21 18:09:49:539
7.7955,12.9622,12.8425,2017-03-21 18:09:49:549
7.7955,12.9622,12.8425,2017-03-21 18:09:49:559
4.4053,6.5314,6.2728,2017-03-21 18:09:49:569
4.4053,6.5314,6.2728,2017-03-21 18:09:49:580
2.3894,2.7677,3.5386,2017-03-21 18:09:49:589
2.3894,2.7677,3.5386,2017-03-21 18:09:49:599
1.0247,0.8811,0.7709,2017-03-21 18:09:49:610
0.7183,0.2251,0.2729,2017-03-21 18:09:49:619
0.7183,0.2251,0.2729,2017-03-21 18:09:49:629
0.4166,-1.7095,-0.4214,2017-03-21 18:09:49:639
0.4166,-1.7095,-0.4214,2017-03-21 18:09:49:649
1.9106,-4.0606,-0.7949,2017-03-21 18:09:49:659
1.9106,-4.0606,-0.7949,2017-03-21 18:09:49:669
1.1923,-1.9489,1.0534,2017-03-21 18:09:49:679
1.4269,-0.9385,1.3503,2017-03-21 18:09:49:690
1.4269,-0.9385,1.3503,2017-03-21 18:09:49:700
3.2082,3.9552,2.6288,2017-03-21 18:09:49:710
3.2082,3.9552,2.6288,2017-03-21 18:09:49:719
2.7773,32.7718,3.1891,2017-03-21 18:09:49:729
2.7773,32.7718,3.1891,2017-03-21 18:09:49:739
14.054,62.3067,-3.0933,2017-03-21 18:09:49:749
14.054,62.3067,-3.0933,2017-03-21 18:09:49:760
37.3687,49.1242,21.6436,2017-03-21 18:09:49:770
27.5142,34.0408,12.9191,2017-03-21 18:09:49:779
27.5142,34.0408,12.9191,2017-03-21 18:09:49:789
9.3757,14.2072,-87.3213,2017-03-21 18:09:49:799
9.3757,14.2072,-87.3213,2017-03-21 18:09:49:809
-0.316,4.3,-9.2656,2017-03-21 18:09:49:819
-0.316,4.3,-9.2656,2017-03-21 18:09:49:830
-5.6982,4.3814,0.4405,2017-03-21 18:09:49:839
-5.4157,6.0334,2.897,2017-03-21 18:09:49:849
-5.4157,6.0334,2.897,2017-03-21 18:09:49:859
-3.0406,2.3511,6.6319,2017-03-21 18:09:49:869
-3.0406,2.3511,6.6319,2017-03-21 18:09:49:879
-2.0351,-1.6616,6.8857,2017-03-21 18:09:49:889
-2.0351,-1.6616,6.8857,2017-03-21 18:09:49:899
-2.0351,-1.6616,6.8857,2017-03-21 18:09:49:909
-3.4189,-4.5538,3.8595,2017-03-21 18:09:49:920
-3.4189,-4.5538,3.8595,2017-03-21 18:09:49:929
-6.857,-5.8323,3.4093,2017-03-21 18:09:49:939
-9.3709,-5.0949,6.5074,2017-03-21 18:09:49:949
-9.3709,-5.0949,6.5074,2017-03-21 18:09:49:960
-9.3709,-5.0949,6.5074,2017-03-21 18:09:49:969
-10.2376,-2.375,2.4373,2017-03-21 18:09:49:979
-10.2376,-2.375,2.4373,2017-03-21 18:09:49:989
-2.4086,-1.0151,-4.5394,2017-03-21 18:09:49:999
-2.4086,-1.0151,-4.5394,2017-03-21 18:09:50:009
-1.0151,-0.3017,-4.3479,2017-03-21 18:09:50:019
-1.0151,-0.3017,-4.3479,2017-03-21 18:09:50:029
-10.4722,0.8667,-30.7799,2017-03-21 18:09:50:039
-10.4722,0.8667,-30.7799,2017-03-21 18:09:50:049
-3.2753,-0.5363,0.3352,2017-03-21 18:09:50:059
-3.2753,-0.5363,0.3352,2017-03-21 18:09:50:069
-7.9631,10.635,2.3511,2017-03-21 18:09:50:080
-7.9631,10.635,2.3511,2017-03-21 18:09:50:090
6.4787,29.4439,18.6413,2017-03-21 18:09:50:099
6.4787,29.4439,18.6413,2017-03-21 18:09:50:109
17.9421,30.1526,23.6403,2017-03-21 18:09:50:120
17.9421,30.1526,23.6403,2017-03-21 18:09:50:129
13.9295,22.7689,32.7575,2017-03-21 18:09:50:140
13.9295,22.7689,32.7575,2017-03-21 18:09:50:149
1.5514,33.6768,19.7857,2017-03-21 18:09:50:160
1.5514,33.6768,19.7857,2017-03-21 18:09:50:169
6.1531,36.1908,-0.1293,2017-03-21 18:09:50:179
6.1531,36.1908,-0.1293,2017-03-21 18:09:50:190
22.0267,28.2037,-15.8544,2017-03-21 18:09:50:199
22.0267,28.2037,-15.8544,2017-03-21 18:09:50:209
-12.5696,-2.0207,-82.6239,2017-03-21 18:09:50:220
-12.5696,-2.0207,-82.6239,2017-03-21 18:09:50:229
-8.3079,-13.7475,-37.996,2017-03-21 18:09:50:239
-8.3079,-13.7475,-37.996,2017-03-21 18:09:50:250
31.3545,10.4579,-48.5544,2017-03-21 18:09:50:259
31.3545,10.4579,-48.5544,2017-03-21 18:09:50:269
12.7467,10.8074,5.114,2017-03-21 18:09:50:280
12.7467,10.8074,5.114,2017-03-21 18:09:50:289
1.5036,8.2839,7.9344,2017-03-21 18:09:50:299
1.5036,8.2839,7.9344,2017-03-21 18:09:50:310
0.316,3.6009,4.209,2017-03-21 18:09:50:319
0.316,3.6009,4.209,2017-03-21 18:09:50:330
1.1349,-4.7501,-0.9625,2017-03-21 18:09:50:339
1.1349,-4.7501,-0.9625,2017-03-21 18:09:50:350
-1.6903,-0.3591,-1.1109,2017-03-21 18:09:50:359
-1.6903,-0.3591,-1.1109,2017-03-21 18:09:50:369
-1.5275,-0.6464,0.2538,2017-03-21 18:09:50:379
-1.5275,-0.6464,0.2538,2017-03-21 18:09:50:389
1.5514,1.2067,1.2067,2017-03-21 18:09:50:399
1.5514,1.2067,1.2067,2017-03-21 18:09:50:409
12.9478,14.6621,-23.5254,2017-03-21 18:09:50:420
12.9478,14.6621,-23.5254,2017-03-21 18:09:50:429
11.3868,33.1166,2.9784,2017-03-21 18:09:50:439
11.3868,33.1166,2.9784,2017-03-21 18:09:50:449
10.2663,62.0769,5.6838,2017-03-21 18:09:50:459
10.2663,62.0769,5.6838,2017-03-21 18:09:50:469
39.9544,55.9621,13.1011,2017-03-21 18:09:50:479
39.9544,55.9621,13.1011,2017-03-21 18:09:50:489
39.9544,55.9621,13.1011,2017-03-21 18:09:50:499
8.0206,19.7043,-10.8074,2017-03-21 18:09:50:510
8.0206,19.7043,-10.8074,2017-03-21 18:09:50:519
7.1204,3.6105,-0.0479,2017-03-21 18:09:50:529
7.1204,3.6105,-0.0479,2017-03-21 18:09:50:539
-2.2027,4.1468,1.9106,2017-03-21 18:09:50:549
-2.2027,4.1468,1.9106,2017-03-21 18:09:50:559
-3.3854,3.5865,9.4092,2017-03-21 18:09:50:570
-3.3854,3.5865,9.4092,2017-03-21 18:09:50:579
-6.1339,1.4365,12.2056,2017-03-21 18:09:50:591
-6.1339,1.4365,12.2056,2017-03-21 18:09:50:599
-8.4898,0.3831,13.0149,2017-03-21 18:09:50:609
-8.4898,0.3831,13.0149,2017-03-21 18:09:50:619
-20.6811,0.3639,14.8919,2017-03-21 18:09:50:629
-24.8087,-0.0431,13.5751,2017-03-21 18:09:50:639
-24.8087,-0.0431,13.5751,2017-03-21 18:09:50:649
-20.6763,-6.4931,-9.3565,2017-03-21 18:09:50:659
-20.6763,-6.4931,-9.3565,2017-03-21 18:09:50:669
-6.268,-3.1843,-0.0096,2017-03-21 18:09:50:680
-6.268,-3.1843,-0.0096,2017-03-21 18:09:50:689
-3.4716,-4.6112,-3.6536,2017-03-21 18:09:50:699
-3.4716,-4.6112,-3.6536,2017-03-21 18:09:50:709
5.5354,-9.5289,-18.8615,2017-03-21 18:09:50:719
5.5354,-9.5289,-18.8615,2017-03-21 18:09:50:730
3.8355,-6.5888,-28.6682,2017-03-21 18:09:50:740
3.8355,-6.5888,-28.6682,2017-03-21 18:09:50:749
-9.1411,-3.5386,-0.7614,2017-03-21 18:09:50:759
-9.1411,-3.5386,-0.7614,2017-03-21 18:09:50:769
-3.6105,-0.972,-1.834,2017-03-21 18:09:50:779
-3.6105,-0.972,-1.834,2017-03-21 18:09:50:789
-8.3222,8.0062,13.9295,2017-03-21 18:09:50:799
-8.3222,8.0062,13.9295,2017-03-21 18:09:50:810
-7.0246,21.0163,37.7566,2017-03-21 18:09:50:819
-7.0246,21.0163,37.7566,2017-03-21 18:09:50:829
0.0144,22.5438,28.5533,2017-03-21 18:09:50:839
0.0144,22.5438,28.5533,2017-03-21 18:09:50:849
9.1698,20.9828,16.7067,2017-03-21 18:09:50:859
9.1698,20.9828,16.7067,2017-03-21 18:09:50:870
14.7914,29.4295,16.9031,2017-03-21 18:09:50:879
14.7914,29.4295,16.9031,2017-03-21 18:09:50:890
-4.4293,45.0685,-6.699,2017-03-21 18:09:50:900
-4.4293,45.0685,-6.699,2017-03-21 18:09:50:910
6.8187,54.334,-3.4477,2017-03-21 18:09:50:919
6.8187,54.334,-3.4477,2017-03-21 18:09:50:929
27.3178,32.0632,-9.2751,2017-03-21 18:09:50:939
22.9173,19.4888,-14.71,2017-03-21 18:09:50:950
22.9173,19.4888,-14.71,2017-03-21 18:09:50:959
-3.4093,-25.2636,-75.901,2017-03-21 18:09:50:969
-3.4093,-25.2636,-75.901,2017-03-21 18:09:50:979
8.7915,18.354,6.6655,2017-03-21 18:09:50:989
8.7915,18.354,6.6655,2017-03-21 18:09:50:999
8.7915,18.354,6.6655,2017-03-21 18:09:51:009
16.86,7.0342,17.5687,2017-03-21 18:09:51:020
16.86,7.0342,17.5687,2017-03-21 18:09:51:029
6.9671,2.4134,6.1292,2017-03-21 18:09:51:039
6.9671,2.4134,6.1292,2017-03-21 18:09:51:049
7.6279,-0.4357,0.5459,2017-03-21 18:09:51:059
7.1204,-1.6185,-0.5411,2017-03-21 18:09:51:069
7.1204,-1.6185,-0.5411,2017-03-21 18:09:51:079
6.2441,-2.0399,0.0144,2017-03-21 18:09:51:089
6.2441,-2.0399,0.0144,2017-03-21 18:09:51:099
6.2441,-2.0399,0.0144,2017-03-21 18:09:51:110
8.2121,-4.0606,-1.2019,2017-03-21 18:09:51:119
8.2121,-4.0606,-1.2019,2017-03-21 18:09:51:129
3.5913,-3.8882,0.431,2017-03-21 18:09:51:141
8.011,-2.9784,9.7971,2017-03-21 18:09:51:149
8.011,-2.9784,9.7971,2017-03-21 18:09:51:160
5.363,2.6288,15.5479,2017-03-21 18:09:51:169
5.363,2.6288,15.5479,2017-03-21 18:09:51:179
-3.7014,11.1666,16.7115,2017-03-21 18:09:51:189
-3.7014,11.1666,16.7115,2017-03-21 18:09:51:199
-1.6807,20.978,9.2895,2017-03-21 18:09:51:210
-1.6807,20.978,9.2895,2017-03-21 18:09:51:220
47.0509,51.0875,-23.5877,2017-03-21 18:09:51:229
47.0509,51.0875,-23.5877,2017-03-21 18:09:51:239
31.388,59.199,-30.4255,2017-03-21 18:09:51:249
31.388,59.199,-30.4255,2017-03-21 18:09:51:259
2.2649,32.7479,-9.2895,2017-03-21 18:09:51:269
2.2649,32.7479,-9.2895,2017-03-21 18:09:51:280
-0.0718,15.4905,-11.5257,2017-03-21 18:09:51:289
-0.0718,15.4905,-11.5257,2017-03-21 18:09:51:299
-14.03,14.1928,-1.9297,2017-03-21 18:09:51:309
-14.03,14.1928,-1.9297,2017-03-21 18:09:51:319
-9.0597,6.9719,6.6798,2017-03-21 18:09:51:329
-9.0597,6.9719,6.6798,2017-03-21 18:09:51:339
-8.9591,1.834,6.4212,2017-03-21 18:09:51:349
-8.9591,1.834,6.4212,2017-03-21 18:09:51:359
-16.5679,-0.723,10.6494,2017-03-21 18:09:51:369
-16.5679,-0.723,10.6494,2017-03-21 18:09:51:379
-19.642,-1.154,14.2838,2017-03-21 18:09:51:389
-19.642,-1.154,14.2838,2017-03-21 18:09:51:399
-14.0923,-3.9983,8.1882,2017-03-21 18:09:51:410
-14.0923,-3.9983,8.1882,2017-03-21 18:09:51:419
-10.0173,-4.6735,2.624,2017-03-21 18:09:51:429
-10.0173,-4.6735,2.624,2017-03-21 18:09:51:439
-3.0694,-5.8371,-7.7476,2017-03-21 18:09:51:450
-3.0694,-5.8371,-7.7476,2017-03-21 18:09:51:459
4.4819,-7.7428,-29.5971,2017-03-21 18:09:51:469
4.4819,-7.7428,-29.5971,2017-03-21 18:09:51:479
-6.0238,-5.4588,-18.7801,2017-03-21 18:09:51:490
-6.0238,-5.4588,-18.7801,2017-03-21 18:09:51:499
-3.9361,-3.4572,-1.0822,2017-03-21 18:09:51:509
-3.9361,-3.4572,-1.0822,2017-03-21 18:09:51:520
-6.5266,0.5986,5.3534,2017-03-21 18:09:51:530
-6.5266,0.5986,5.3534,2017-03-21 18:09:51:539
-6.0047,7.7764,13.2926,2017-03-21 18:09:51:549
-6.0047,7.7764,13.2926,2017-03-21 18:09:51:559
-0.0048,14.801,30.0903,2017-03-21 18:09:51:569
-0.0048,14.801,30.0903,2017-03-21 18:09:51:579
3.2705,22.0219,38.7765,2017-03-21 18:09:51:589
3.2705,22.0219,38.7765,2017-03-21 18:09:51:599
3.2705,22.0219,38.7765,2017-03-21 18:09:51:609
-1.5179,28.4958,30.5883,2017-03-21 18:09:51:619
-12.9095,43.4404,13.8002,2017-03-21 18:09:51:629
-12.9095,43.4404,13.8002,2017-03-21 18:09:51:639
-13.216,54.7315,6.5984,2017-03-21 18:09:51:649
-13.216,54.7315,6.5984,2017-03-21 18:09:51:660
7.829,43.7421,0.9625,2017-03-21 18:09:51:669
7.829,43.7421,0.9625,2017-03-21 18:09:51:679
27.7296,3.7685,-156.734,2017-03-21 18:09:51:689
27.7296,3.7685,-156.734,2017-03-21 18:09:51:699
-31.297,24.3251,20.8727,2017-03-21 18:09:51:709
17.8033,16.4577,11.4251,2017-03-21 18:09:51:719
17.8033,16.4577,11.4251,2017-03-21 18:09:51:729
17.8033,16.4577,11.4251,2017-03-21 18:09:51:739
12.4115,4.1085,7.5657,2017-03-21 18:09:51:749
12.4115,4.1085,7.5657,2017-03-21 18:09:51:759
6.0669,0.1197,6.8426,2017-03-21 18:09:51:770
4.0989,-1.5036,2.4086,2017-03-21 18:09:51:780
4.0989,-1.5036,2.4086,2017-03-21 18:09:51:789
4.0989,-1.5036,2.4086,2017-03-21 18:09:51:799
3.5482,-2.6671,-1.3886,2017-03-21 18:09:51:809
2.7629,-2.4469,-1.7334,2017-03-21 18:09:51:819
2.7629,-2.4469,-1.7334,2017-03-21 18:09:51:829
2.8539,-1.6712,-0.5076,2017-03-21 18:09:51:840
2.8539,-1.6712,-0.5076,2017-03-21 18:09:51:849
3.7541,-0.7326,2.308,2017-03-21 18:09:51:860
3.7541,-0.7326,2.308,2017-03-21 18:09:51:869
2.6576,5.7174,6.3638,2017-03-21 18:09:51:880
2.6576,5.7174,6.3638,2017-03-21 18:09:51:889
-7.4172,19.7617,10.9271,2017-03-21 18:09:51:900
-7.4172,19.7617,10.9271,2017-03-21 18:09:51:910
-4.3144,31.2156,10.1706,2017-03-21 18:09:51:919
-4.3144,31.2156,10.1706,2017-03-21 18:09:51:929
13.8529,48.9423,6.3446,2017-03-21 18:09:51:939
13.8529,48.9423,6.3446,2017-03-21 18:09:51:949
24.4256,41.9656,16.4482,2017-03-21 18:09:51:960
24.4256,41.9656,16.4482,2017-03-21 18:09:51:969
16.8217,26.7768,3.9361,2017-03-21 18:09:51:980
16.8217,26.7768,3.9361,2017-03-21 18:09:51:989
-9.2416,11.0277,-125.2551,2017-03-21 18:09:51:999
-9.2416,11.0277,-125.2551,2017-03-21 18:09:52:009
-9.4523,4.6064,1.1301,2017-03-21 18:09:52:020
-7.6806,6.3734,-4.2234,2017-03-21 18:09:52:030
-7.6806,6.3734,-4.2234,2017-03-21 18:09:52:039
-3.6248,2.6528,4.3239,2017-03-21 18:09:52:049
-3.6248,2.6528,4.3239,2017-03-21 18:09:52:059
-3.2992,-3.0742,7.6567,2017-03-21 18:09:52:069
-3.2992,-3.0742,7.6567,2017-03-21 18:09:52:079
-6.79,-8.2025,12.22,2017-03-21 18:09:52:090
-6.79,-8.2025,12.22,2017-03-21 18:09:52:100
-8.1355,-5.2385,13.5416,2017-03-21 18:09:52:109
-8.1355,-5.2385,13.5416,2017-03-21 18:09:52:119
-10.1466,-3.5291,8.2839,2017-03-21 18:09:52:129
-10.1466,-3.5291,8.2839,2017-03-21 18:09:52:141
-7.8482,-3.1891,0.3256,2017-03-21 18:09:52:149
-7.8482,-3.1891,0.3256,2017-03-21 18:09:52:159
-1.7095,-1.7669,-5.3439,2017-03-21 18:09:52:169
-0.7566,-1.2402,-5.4588,2017-03-21 18:09:52:179
-0.7566,-1.2402,-5.4588,2017-03-21 18:09:52:189
-3.7541,0.4022,-6.5027,2017-03-21 18:09:52:199
-3.7541,0.4022,-6.5027,2017-03-21 18:09:52:209
-10.8218,6.9001,-70.6529,2017-03-21 18:09:52:219
-10.8218,6.9001,-70.6529,2017-03-21 18:09:52:229
-15.3277,10.4962,6.0238,2017-03-21 18:09:52:239
-15.3277,10.4962,6.0238,2017-03-21 18:09:52:250
-8.7005,33.289,20.6572,2017-03-21 18:09:52:259
-8.7005,33.289,20.6572,2017-03-21 18:09:52:269
7.7764,20.6859,21.1887,2017-03-21 18:09:52:279
11.0804,14.8632,18.7179,2017-03-21 18:09:52:292
11.0804,14.8632,18.7179,2017-03-21 18:09:52:299
13.3549,15.4713,29.2619,2017-03-21 18:09:52:310
13.3549,15.4713,29.2619,2017-03-21 18:09:52:320
6.6655,18.8041,23.9037,2017-03-21 18:09:52:329
6.6655,18.8041,23.9037,2017-03-21 18:09:52:339
6.6655,18.8041,23.9037,2017-03-21 18:09:52:349
-3.5434,35.0846,3.4572,2017-03-21 18:09:52:360
-3.5434,35.0846,3.4572,2017-03-21 18:09:52:369
5.6886,43.3446,-5.3534,2017-03-21 18:09:52:379
5.6886,43.3446,-5.3534,2017-03-21 18:09:52:389
14.5376,27.3178,-9.7731,2017-03-21 18:09:52:399
14.5376,27.3178,-9.7731,2017-03-21 18:09:52:409
-7.7428,-10.0556,-75.2306,2017-03-21 18:09:52:419
-19.6325,8.8633,107.8396,2017-03-21 18:09:52:429
-19.6325,8.8633,107.8396,2017-03-21 18:09:52:440
21.0019,8.3941,-1.0199,2017-03-21 18:09:52:449
21.0019,8.3941,-1.0199,2017-03-21 18:09:52:459
11.3437,7.829,4.0797,2017-03-21 18:09:52:469
11.3437,7.829,4.0797,2017-03-21 18:09:52:480
5.0853,4.889,1.743,2017-03-21 18:09:52:489
5.0853,4.889,1.743,2017-03-21 18:09:52:499
4.6591,2.1117,-2.5809,2017-03-21 18:09:52:509
4.6591,2.1117,-2.5809,2017-03-21 18:09:52:519
5.4492,-1.3551,-12.8617,2017-03-21 18:09:52:529
5.4492,-1.3551,-12.8617,2017-03-21 18:09:52:539
2.6624,-1.1444,-2.3607,2017-03-21 18:09:52:549
2.6624,-1.1444,-2.3607,2017-03-21 18:09:52:559
3.2322,-2.8347,0.3448,2017-03-21 18:09:52:569
3.2322,-2.8347,0.3448,2017-03-21 18:09:52:579
4.8507,-1.2977,6.7277,2017-03-21 18:09:52:589
4.8507,-1.2977,6.7277,2017-03-21 18:09:52:600
4.8507,-1.2977,6.7277,2017-03-21 18:09:52:610
4.7357,2.4948,10.7979,2017-03-21 18:09:52:619
4.7357,2.4948,10.7979,2017-03-21 18:09:52:629
-11.6023,31.9865,10.8793,2017-03-21 18:09:52:639
-11.6023,31.9865,10.8793,2017-03-21 18:09:52:649
4.9321,44.7141,-6.9863,2017-03-21 18:09:52:659
4.9321,44.7141,-6.9863,2017-03-21 18:09:52:669
22.5246,39.49,7.3694,2017-03-21 18:09:52:679
22.5246,39.49,7.3694,2017-03-21 18:09:52:689
15.2559,28.3138,15.3851,2017-03-21 18:09:52:699
15.2559,28.3138,15.3851,2017-03-21 18:09:52:709
10.659,18.6796,-4.3479,2017-03-21 18:09:52:719
10.659,18.6796,-4.3479,2017-03-21 18:09:52:729
3.1891,1.2402,18.986,2017-03-21 18:09:52:739
3.1891,1.2402,18.986,2017-03-21 18:09:52:749
-7.5513,7.3358,0.2298,2017-03-21 18:09:52:759
-7.5513,7.3358,0.2298,2017-03-21 18:09:52:770
-5.0757,2.988,4.6064,2017-03-21 18:09:52:779
-5.0757,2.988,4.6064,2017-03-21 18:09:52:789
-4.1324,-0.7614,3.1125,2017-03-21 18:09:52:799
-4.1324,-0.7614,3.1125,2017-03-21 18:09:52:809
-7.9679,-4.9081,9.5672,2017-03-21 18:09:52:819
-7.9679,-4.9081,9.5672,2017-03-21 18:09:52:830
-10.1514,-3.9696,12.1338,2017-03-21 18:09:52:839
-10.1514,-3.9696,12.1338,2017-03-21 18:09:52:849
-15.0021,-1.3503,9.6917,2017-03-21 18:09:52:859
-15.0021,-1.3503,9.6917,2017-03-21 18:09:52:869
-10.9511,-1.0056,0.2059,2017-03-21 18:09:52:879
-10.9511,-1.0056,0.2059,2017-03-21 18:09:52:889
-1.4653,-1.2833,-7.1778,2017-03-21 18:09:52:900
-1.4653,-1.2833,-7.1778,2017-03-21 18:09:52:911
5.0326,1.2115,-75.2593,2017-03-21 18:09:52:919
5.0326,1.2115,-75.2593,2017-03-21 18:09:52:929
-4.7309,-4.4149,0.6847,2017-03-21 18:09:52:939
-4.7309,-4.4149,0.6847,2017-03-21 18:09:52:949
-4.5873,-1.4509,5.3582,2017-03-21 18:09:52:959
-4.5873,-1.4509,5.3582,2017-03-21 18:09:52:969
-5.1906,15.0595,21.6771,2017-03-21 18:09:52:979
-5.1906,15.0595,21.6771,2017-03-21 18:09:52:991
0.1245,25.2923,33.514,2017-03-21 18:09:52:999
0.1245,25.2923,33.514,2017-03-21 18:09:53:009
7.3789,15.9837,17.8655,2017-03-21 18:09:53:020
7.3789,15.9837,17.8655,2017-03-21 18:09:53:029
12.4546,13.3166,16.7929,2017-03-21 18:09:53:039
12.4546,13.3166,16.7929,2017-03-21 18:09:53:050
2.4517,23.8941,12.9478,2017-03-21 18:09:53:060
2.4517,23.8941,12.9478,2017-03-21 18:09:53:069
-3.1891,39.557,6.4069,2017-03-21 18:09:53:080
-3.1891,39.557,6.4069,2017-03-21 18:09:53:089
9.0501,42.8179,-0.0958,2017-03-21 18:09:53:099
9.0501,42.8179,-0.0958,2017-03-21 18:09:53:109
17.6309,22.9748,-0.5267,2017-03-21 18:09:53:120
17.6309,22.9748,-0.5267,2017-03-21 18:09:53:131
7.3598,9.7252,-9.3709,2017-03-21 18:09:53:140
7.3598,9.7252,-9.3709,2017-03-21 18:09:53:149
8.102,19.2398,-14.279,2017-03-21 18:09:53:159
8.102,19.2398,-14.279,2017-03-21 18:09:53:170
19.3499,10.2568,6.1196,2017-03-21 18:09:53:179
19.3499,10.2568,6.1196,2017-03-21 18:09:53:189
5.2529,7.4412,1.2354,2017-03-21 18:09:53:199
5.2529,7.4412,1.2354,2017-03-21 18:09:53:209
2.8395,3.4141,-0.4405,2017-03-21 18:09:53:219
3.5626,1.8771,-1.1396,2017-03-21 18:09:53:229
3.5626,1.8771,-1.1396,2017-03-21 18:09:53:239
2.7964,-0.0479,-5.6455,2017-03-21 18:09:53:249
2.7964,-0.0479,-5.6455,2017-03-21 18:09:53:259
2.2697,-1.8292,-4.1659,2017-03-21 18:09:53:270
2.2697,-1.8292,-4.1659,2017-03-21 18:09:53:280
2.6097,-2.2936,0.1101,2017-03-21 18:09:53:289
2.6097,-2.2936,0.1101,2017-03-21 18:09:53:299
4.367,-2.1644,3.2513,2017-03-21 18:09:53:310
4.367,-2.1644,3.2513,2017-03-21 18:09:53:320
7.7285,2.2697,7.9583,2017-03-21 18:09:53:329
7.7285,2.2697,7.9583,2017-03-21 18:09:53:339
0.9625,18.4832,9.6199,2017-03-21 18:09:53:349
-6.9767,35.1277,7.0054,2017-03-21 18:09:53:359
-6.9767,35.1277,7.0054,2017-03-21 18:09:53:369
10.2999,55.6796,-6.2297,2017-03-21 18:09:53:379
10.2999,55.6796,-6.2297,2017-03-21 18:09:53:389
25.2732,43.5026,10.8984,2017-03-21 18:09:53:399
25.2732,43.5026,10.8984,2017-03-21 18:09:53:410
10.6303,24.4256,11.5017,2017-03-21 18:09:53:420
10.6303,24.4256,11.5017,2017-03-21 18:09:53:430
13.058,17.1138,-10.8218,2017-03-21 18:09:53:440
13.058,17.1138,-10.8218,2017-03-21 18:09:53:449
-2.5857,8.1834,19.7474,2017-03-21 18:09:53:459
-2.5857,8.1834,19.7474,2017-03-21 18:09:53:470
-8.6862,6.7038,-0.2586,2017-03-21 18:09:53:479
-8.6862,6.7038,-0.2586,2017-03-21 18:09:53:489
-3.735,0.7566,2.1931,2017-03-21 18:09:53:499
-3.735,0.7566,2.1931,2017-03-21 18:09:53:510
-2.375,-1.4988,3.2944,2017-03-21 18:09:53:520
-2.375,-1.4988,3.2944,2017-03-21 18:09:53:529
-2.375,-4.0127,2.6671,2017-03-21 18:09:53:539
-1.9585,-4.0127,2.6671,2017-03-21 18:09:53:549
-1.9585,-4.0127,2.6671,2017-03-21 18:09:53:559
-5.8466,-7.4603,7.829,2017-03-21 18:09:53:569
-5.8466,-7.4603,7.829,2017-03-21 18:09:53:579
-6.7325,-5.1571,10.7548,2017-03-21 18:09:53:590
-8.3175,-3.0454,9.2703,2017-03-21 18:09:53:599
-8.3175,-3.0454,9.2703,2017-03-21 18:09:53:612
-5.8227,-1.4413,0.8092,2017-03-21 18:09:53:620
-5.8227,-1.4413,0.8092,2017-03-21 18:09:53:629
-3.0837,-0.2825,-3.5147,2017-03-21 18:09:53:639
-3.0837,-0.2825,-3.5147,2017-03-21 18:09:53:649
-3.8211,0.6273,-3.9983,2017-03-21 18:09:53:660
-3.8211,0.6273,-3.9983,2017-03-21 18:09:53:669
-9.4619,5.1427,-7.6567,2017-03-21 18:09:53:679
-9.4619,5.1427,-7.6567,2017-03-21 18:09:53:690
-25.7377,26.3937,-10.908,2017-03-21 18:09:53:699
-25.7377,26.3937,-10.908,2017-03-21 18:09:53:709
-11.0899,25.7903,0.34,2017-03-21 18:09:53:719
2.9401,20.6476,3.9313,2017-03-21 18:09:53:729
2.9401,20.6476,3.9313,2017-03-21 18:09:53:739
30.8373,14.552,15.7443,2017-03-21 18:09:53:749
30.8373,14.552,15.7443,2017-03-21 18:09:53:759
26.001,13.647,33.4039,2017-03-21 18:09:53:769
26.001,13.647,33.4039,2017-03-21 18:09:53:779
-3.7541,26.5517,18.4162,2017-03-21 18:09:53:790
-3.7541,26.5517,18.4162,2017-03-21 18:09:53:799
3.6057,42.6168,1.063,2017-03-21 18:09:53:811
3.6057,42.6168,1.063,2017-03-21 18:09:53:819
20.049,26.59,-5.0757,2017-03-21 18:09:53:831
20.049,26.59,-5.0757,2017-03-21 18:09:53:839
5.7126,9.8881,-34.4526,2017-03-21 18:09:53:849
5.7126,9.8881,-34.4526,2017-03-21 18:09:53:859
5.9089,18.2199,-10.228,2017-03-21 18:09:53:870
5.9089,18.2199,-10.228,2017-03-21 18:09:53:879
21.6963,8.3127,-6.5122,2017-03-21 18:09:53:890
21.6963,8.3127,-6.5122,2017-03-21 18:09:53:900
5.8706,8.8969,6.1723,2017-03-21 18:09:53:909
4.142,6.9192,3.5674,2017-03-21 18:09:53:920
4.142,6.9192,3.5674,2017-03-21 18:09:53:929
2.6767,3.4572,0.8571,2017-03-21 18:09:53:939
2.6767,3.4572,0.8571,2017-03-21 18:09:53:949
2.4325,1.7526,-1.0391,2017-03-21 18:09:53:959
2.4325,1.7526,-1.0391,2017-03-21 18:09:53:970
4.8219,-2.2362,-3.6823,2017-03-21 18:09:53:979
4.8219,-2.2362,-3.6823,2017-03-21 18:09:53:989
4.8219,-2.2362,-3.6823,2017-03-21 18:09:53:999
2.3559,-1.5658,-1.1588,2017-03-21 18:09:54:009
3.3279,-3.1029,2.1452,2017-03-21 18:09:54:019
3.3279,-3.1029,2.1452,2017-03-21 18:09:54:029
3.6057,-0.5363,4.4915,2017-03-21 18:09:54:039
3.6057,-0.5363,4.4915,2017-03-21 18:09:54:049
5.3056,7.2353,5.9664,2017-03-21 18:09:54:059
5.3056,7.2353,5.9664,2017-03-21 18:09:54:069
-2.8108,36.4685,-0.9194,2017-03-21 18:09:54:080
-2.8108,36.4685,-0.9194,2017-03-21 18:09:54:089
14.7722,60.6451,-7.0006,2017-03-21 18:09:54:099
14.7722,60.6451,-7.0006,2017-03-21 18:09:54:109
24.0186,45.3079,17.6979,2017-03-21 18:09:54:119
24.0186,45.3079,17.6979,2017-03-21 18:09:54:129
10.7595,23.0801,10.9846,2017-03-21 18:09:54:140
10.7595,23.0801,10.9846,2017-03-21 18:09:54:149
14.7196,17.9996,-1.9058,2017-03-21 18:09:54:159
0.5028,6.4452,9.1075,2017-03-21 18:09:54:170
0.5028,6.4452,9.1075,2017-03-21 18:09:54:179
0.5028,6.4452,9.1075,2017-03-21 18:09:54:189
-8.3797,6.2489,-8.1882,2017-03-21 18:09:54:199
-8.3797,6.2489,-8.1882,2017-03-21 18:09:54:210
-0.7374,0.4741,3.6296,2017-03-21 18:09:54:219
-0.7374,0.4741,3.6296,2017-03-21 18:09:54:229
-2.15,-0.316,6.9432,2017-03-21 18:09:54:239
-2.15,-0.316,6.9432,2017-03-21 18:09:54:250
-2.3367,-3.0454,5.5354,2017-03-21 18:09:54:259
-2.3367,-3.0454,5.5354,2017-03-21 18:09:54:269
-3.0502,-5.0805,4.2904,2017-03-21 18:09:54:279
-3.0502,-5.0805,4.2904,2017-03-21 18:09:54:289
-6.292,-7.1874,7.1299,2017-03-21 18:09:54:301
-6.292,-7.1874,7.1299,2017-03-21 18:09:54:309
-8.7724,-4.1468,7.1826,2017-03-21 18:09:54:321
-7.7285,-3.0454,3.3615,2017-03-21 18:09:54:329
-7.7285,-3.0454,3.3615,2017-03-21 18:09:54:339
-3.6631,-1.1013,-1.9489,2017-03-21 18:09:54:349
-3.6631,-1.1013,-1.9489,2017-03-21 18:09:54:360
-2.648,-0.2825,-4.1611,2017-03-21 18:09:54:369
-2.648,-0.2825,-4.1611,2017-03-21 18:09:54:380
-4.7549,0.4262,-5.9951,2017-03-21 18:09:54:390
-4.7549,0.4262,-5.9951,2017-03-21 18:09:54:399
-10.6781,3.9313,-6.5936,2017-03-21 18:09:54:409
-10.6781,3.9313,-6.5936,2017-03-21 18:09:54:419
-19.5319,16.6828,-2.217,2017-03-21 18:09:54:429
-19.5319,16.6828,-2.217,2017-03-21 18:09:54:440
-11.9662,28.1031,9.9359,2017-03-21 18:09:54:450
-11.9662,28.1031,9.9359,2017-03-21 18:09:54:459
28.1558,21.0786,20.2885,2017-03-21 18:09:54:469
28.1558,21.0786,20.2885,2017-03-21 18:09:54:480
27.6339,19.6612,35.1948,2017-03-21 18:09:54:490
27.6339,19.6612,35.1948,2017-03-21 18:09:54:499
-1.3312,27.5764,19.7953,2017-03-21 18:09:54:509
-1.3312,27.5764,19.7953,2017-03-21 18:09:54:519
-2.3224,41.7022,3.0263,2017-03-21 18:09:54:530
-2.3224,41.7022,3.0263,2017-03-21 18:09:54:540
16.8695,29.8701,-0.0335,2017-03-21 18:09:54:549
16.8695,29.8701,-0.0335,2017-03-21 18:09:54:559
8.9639,13.9582,-7.2784,2017-03-21 18:09:54:569
8.9639,13.9582,-7.2784,2017-03-21 18:09:54:579
7.6088,16.362,-34.2993,2017-03-21 18:09:54:589
7.6088,16.362,-34.2993,2017-03-21 18:09:54:599
27.3609,6.4596,-18.4401,2017-03-21 18:09:54:610
27.3609,6.4596,-18.4401,2017-03-21 18:09:54:619
27.3609,6.4596,-18.4401,2017-03-21 18:09:54:629
5.1284,10.4866,8.3127,2017-03-21 18:09:54:639
2.2027,5.6503,4.2425,2017-03-21 18:09:54:650
2.2027,5.6503,4.2425,2017-03-21 18:09:54:660
1.5993,2.8539,1.9345,2017-03-21 18:09:54:669
1.5993,2.8539,1.9345,2017-03-21 18:09:54:679
1.7286,0.067,-1.3264,2017-03-21 18:09:54:689
1.7286,0.067,-1.3264,2017-03-21 18:09:54:699
0.8332,-1.1301,-0.3831,2017-03-21 18:09:54:709
0.8332,-1.1301,-0.3831,2017-03-21 18:09:54:719
1.4557,-2.0925,2.0734,2017-03-21 18:09:54:729
1.4557,-2.0925,2.0734,2017-03-21 18:09:54:739
3.0071,-1.5083,4.6735,2017-03-21 18:09:54:750
3.0071,-1.5083,4.6735,2017-03-21 18:09:54:759
3.0071,-1.5083,4.6735,2017-03-21 18:09:54:769
4.8698,3.3279,6.4021,2017-03-21 18:09:54:779
4.8698,3.3279,6.4021,2017-03-21 18:09:54:792
3.711,17.492,0.8667,2017-03-21 18:09:54:799
3.711,17.492,0.8667,2017-03-21 18:09:54:809
6.0621,54.3627,-20.7434,2017-03-21 18:09:54:819
6.0621,54.3627,-20.7434,2017-03-21 18:09:54:830
22.5294,50.9247,19.4888,2017-03-21 18:09:54:840
22.5294,50.9247,19.4888,2017-03-21 18:09:54:849
22.199,30.9044,16.362,2017-03-21 18:09:54:860
22.199,30.9044,16.362,2017-03-21 18:09:54:869
14.4897,6.9192,-44.92,2017-03-21 18:09:54:879
14.4897,6.9192,-44.92,2017-03-21 18:09:54:889
0.4645,6.2824,-7.3023,2017-03-21 18:09:54:901
0.4645,6.2824,-7.3023,2017-03-21 18:09:54:909
-2.8491,4.7214,8.4898,2017-03-21 18:09:54:919
-2.8491,4.7214,8.4898,2017-03-21 18:09:54:929
-4.0941,3.6057,10.0461,2017-03-21 18:09:54:939
-4.0941,3.6057,10.0461,2017-03-21 18:09:54:949
-5.5833,0.7039,10.8218,2017-03-21 18:09:54:959
-5.5833,0.7039,10.8218,2017-03-21 18:09:54:970
-6.7756,-2.7533,9.0118,2017-03-21 18:09:54:979
-6.7756,-2.7533,9.0118,2017-03-21 18:09:54:989
-13.0771,-0.8859,11.0708,2017-03-21 18:09:54:999
-13.0771,-0.8859,11.0708,2017-03-21 18:09:55:012
-14.4035,-0.6704,6.8091,2017-03-21 18:09:55:019
-14.4035,-0.6704,6.8091,2017-03-21 18:09:55:031
-13.5033,-2.217,0.3735,2017-03-21 18:09:55:039
-13.5033,-2.217,0.3735,2017-03-21 18:09:55:049
-3.2609,-2.8826,-6.1531,2017-03-21 18:09:55:059
-3.2609,-2.8826,-6.1531,2017-03-21 18:09:55:069
1.9106,-2.1931,-12.5887,2017-03-21 18:09:55:079
1.9106,-2.1931,-12.5887,2017-03-21 18:09:55:089
-10.3142,0.0575,-37.8284,2017-03-21 18:09:55:100
-10.3142,0.0575,-37.8284,2017-03-21 18:09:55:109
-6.0717,-6.0908,1.0918,2017-03-21 18:09:55:120
-6.0717,-6.0908,1.0918,2017-03-21 18:09:55:129
-6.0717,-6.0908,1.0918,2017-03-21 18:09:55:139
-6.0621,3.711,19.9245,2017-03-21 18:09:55:149
4.6208,15.6485,33.6577,2017-03-21 18:09:55:159
4.6208,15.6485,33.6577,2017-03-21 18:09:55:170
10.5153,14.2838,27.6195,2017-03-21 18:09:55:179
10.5153,14.2838,27.6195,2017-03-21 18:09:55:190
12.1003,14.2407,20.9876,2017-03-21 18:09:55:199
12.1003,14.2407,20.9876,2017-03-21 18:09:55:209
2.2649,25.5557,23.1232,2017-03-21 18:09:55:219
2.2649,25.5557,23.1232,2017-03-21 18:09:55:229
-5.205,33.4566,12.1434,2017-03-21 18:09:55:239
5.3151,48.224,-9.1267,2017-03-21 18:09:55:249
5.3151,48.224,-9.1267,2017-03-21 18:09:55:260
5.3151,48.224,-9.1267,2017-03-21 18:09:55:270
30.2244,34.4095,-8.7819,2017-03-21 18:09:55:280
24.2581,21.3419,-7.0773,2017-03-21 18:09:55:289
-10.4148,-6.9623,-90.1321,2017-03-21 18:09:55:299
-10.4148,-6.9623,-90.1321,2017-03-21 18:09:55:309
-10.4148,-6.9623,-90.1321,2017-03-21 18:09:55:319
16.3572,12.6988,-33.5906,2017-03-21 18:09:55:329
13.8145,12.5313,12.0428,2017-03-21 18:09:55:340
13.8145,12.5313,12.0428,2017-03-21 18:09:55:349
6.5457,7.7476,4.6687,2017-03-21 18:09:55:361
6.5457,7.7476,4.6687,2017-03-21 18:09:55:369
6.5457,7.7476,4.6687,2017-03-21 18:09:55:380
5.2289,3.6966,1.312,2017-03-21 18:09:55:389
5.2289,3.6966,1.312,2017-03-21 18:09:55:400
3.5434,1.2594,-2.4565,2017-03-21 18:09:55:410
3.5434,1.2594,-2.4565,2017-03-21 18:09:55:419
3.3567,-1.5179,-12.3541,2017-03-21 18:09:55:429
3.3567,-1.5179,-12.3541,2017-03-21 18:09:55:440
1.4509,-1.7813,-1.0918,2017-03-21 18:09:55:449
1.4509,-1.7813,-1.0918,2017-03-21 18:09:55:459
2.2122,-1.312,3.6057,2017-03-21 18:09:55:470
2.2122,-1.312,3.6057,2017-03-21 18:09:55:479
3.6583,3.2705,7.6423,2017-03-21 18:09:55:489
3.0119,8.3175,10.5872,2017-03-21 18:09:55:499
3.0119,8.3175,10.5872,2017-03-21 18:09:55:509
-8.9974,27.586,7.6519,2017-03-21 18:09:55:519
-8.9974,27.586,7.6519,2017-03-21 18:09:55:529
1.5467,45.2313,-6.6846,2017-03-21 18:09:55:539
1.5467,45.2313,-6.6846,2017-03-21 18:09:55:549
28.673,43.3638,9.6438,2017-03-21 18:09:55:559
28.673,43.3638,9.6438,2017-03-21 18:09:55:569
20.5901,33.7008,17.0563,2017-03-21 18:09:55:579
20.5901,33.7008,17.0563,2017-03-21 18:09:55:589
10.3621,22.4193,-10.2232,2017-03-21 18:09:55:599
10.3621,22.4193,-10.2232,2017-03-21 18:09:55:609
2.9353,7.5369,29.3002,2017-03-21 18:09:55:619
2.9353,7.5369,29.3002,2017-03-21 18:09:55:629
-7.1587,6.5122,1.1205,2017-03-21 18:09:55:639
-7.1587,6.5122,1.1205,2017-03-21 18:09:55:649
-5.6934,2.5762,6.8809,2017-03-21 18:09:55:659
-5.6934,2.5762,6.8809,2017-03-21 18:09:55:669
-4.9416,-0.8715,7.4699,2017-03-21 18:09:55:679
-4.9416,-0.8715,7.4699,2017-03-21 18:09:55:690
-7.5705,-5.7413,9.4379,2017-03-21 18:09:55:699
-7.5705,-5.7413,9.4379,2017-03-21 18:09:55:709
-12.3972,-5.1906,15.0021,2017-03-21 18:09:55:719
-12.3972,-5.1906,15.0021,2017-03-21 18:09:55:729
-12.3972,-5.1906,15.0021,2017-03-21 18:09:55:739
-13.9773,-2.7869,12.7228,2017-03-21 18:09:55:749
-8.9208,-2.5857,0.9625,2017-03-21 18:09:55:759
-8.9208,-2.5857,0.9625,2017-03-21 18:09:55:769
-5.0326,-2.1883,-3.2465,2017-03-21 18:09:55:781
-1.2019,-0.9337,-10.3094,2017-03-21 18:09:55:789
-1.2019,-0.9337,-10.3094,2017-03-21 18:09:55:799
-4.8459,-0.6608,-19.1488,2017-03-21 18:09:55:809
-4.8459,-0.6608,-19.1488,2017-03-21 18:09:55:820
-2.7629,-2.8395,-2.466,2017-03-21 18:09:55:829
-2.7629,-2.8395,-2.466,2017-03-21 18:09:55:840
-6.3207,-0.6081,1.9489,2017-03-21 18:09:55:849
-6.3207,-0.6081,1.9489,2017-03-21 18:09:55:859
-7.8338,9.3757,9.2608,2017-03-21 18:09:55:869
4.5394,21.9165,15.7634,2017-03-21 18:09:55:880
4.5394,21.9165,15.7634,2017-03-21 18:09:55:889
4.5394,21.9165,15.7634,2017-03-21 18:09:55:899
16.0268,18.1624,10.9894,2017-03-21 18:09:55:909
16.0268,18.1624,10.9894,2017-03-21 18:09:55:919
14.2024,19.4744,13.9151,2017-03-21 18:09:55:929
14.2024,19.4744,13.9151,2017-03-21 18:09:55:939
8.1834,32.7862,25.7712,2017-03-21 18:09:55:949
8.1834,32.7862,25.7712,2017-03-21 18:09:55:959
6.3542,46.845,19.077,2017-03-21 18:09:55:969
6.3542,46.845,19.077,2017-03-21 18:09:55:979
14.3652,43.0477,4.4149,2017-03-21 18:09:55:989
14.3652,43.0477,4.4149,2017-03-21 18:09:55:999
10.1418,22.1799,-13.7475,2017-03-21 18:09:56:010
10.1418,22.1799,-13.7475,2017-03-21 18:09:56:019
-11.1187,-11.2192,1.4605,2017-03-21 18:09:56:031
-11.1187,-11.2192,1.4605,2017-03-21 18:09:56:039
23.0562,8.9591,-16.8169,2017-03-21 18:09:56:049
23.0562,8.9591,-16.8169,2017-03-21 18:09:56:059
12.4259,8.8107,0.9912,2017-03-21 18:09:56:069
12.4259,8.8107,0.9912,2017-03-21 18:09:56:079
5.1427,7.2496,-1.5179,2017-03-21 18:09:56:090
4.8315,5.6934,-2.6288,2017-03-21 18:09:56:099
4.8315,5.6934,-2.6288,2017-03-21 18:09:56:110
4.9321,2.8587,-7.1635,2017-03-21 18:09:56:119
4.9321,2.8587,-7.1635,2017-03-21 18:09:56:129
3.0311,1.2737,-4.3814,2017-03-21 18:09:56:139
3.0311,1.2737,-4.3814,2017-03-21 18:09:56:149
3.213,-1.3216,0.1341,2017-03-21 18:09:56:159
3.213,-1.3216,0.1341,2017-03-21 18:09:56:169
5.8227,-3.0933,5.1906,2017-03-21 18:09:56:179
7.2065,-3.4429,7.8434,2017-03-21 18:09:56:189
7.2065,-3.4429,7.8434,2017-03-21 18:09:56:199
1.2019,2.7294,10.2903,2017-03-21 18:09:56:209
1.2019,2.7294,10.2903,2017-03-21 18:09:56:219
-7.4508,12.8569,14.6573,2017-03-21 18:09:56:229
-7.4508,12.8569,14.6573,2017-03-21 18:09:56:239
-14.6094,32.9203,4.9943,2017-03-21 18:09:56:249
-14.6094,32.9203,4.9943,2017-03-21 18:09:56:259
6.6415,52.3756,-5.679,2017-03-21 18:09:56:269
6.6415,52.3756,-5.679,2017-03-21 18:09:56:279
26.6044,39.1644,14.2216,2017-03-21 18:09:56:289
26.6044,39.1644,14.2216,2017-03-21 18:09:56:299
26.6044,39.1644,14.2216,2017-03-21 18:09:56:309
26.6044,39.1644,14.2216,2017-03-21 18:09:56:319
26.6044,39.1644,14.2216,2017-03-21 18:09:56:330
9.3374,26.3171,8.7628,2017-03-21 18:09:56:339
-7.1108,0.747,5.3534,2017-03-21 18:09:56:349
-7.1108,0.747,5.3534,2017-03-21 18:09:56:360
-6.4404,4.1228,-2.4134,2017-03-21 18:09:56:369
-6.4404,4.1228,-2.4134,2017-03-21 18:09:56:379
-4.64,1.0199,5.6407,2017-03-21 18:09:56:389
-4.64,1.0199,5.6407,2017-03-21 18:09:56:399
-6.5074,-3.0598,9.5672,2017-03-21 18:09:56:410
-6.5074,-3.0598,9.5672,2017-03-21 18:09:56:419
-10.5297,-7.8865,14.0252,2017-03-21 18:09:56:430
-10.5297,-7.8865,14.0252,2017-03-21 18:09:56:440
-10.5297,-3.5243,12.5983,2017-03-21 18:09:56:449
-14.0204,-3.5243,12.5983,2017-03-21 18:09:56:459
-11.0468,-2.7533,1.7909,2017-03-21 18:09:56:470
-11.0468,-2.7533,1.7909,2017-03-21 18:09:56:479
-11.0468,-2.7533,1.7909,2017-03-21 18:09:56:489
-2.2075,-1.2163,-6.7516,2017-03-21 18:09:56:499
-2.2075,-1.2163,-6.7516,2017-03-21 18:09:56:510
-0.814,0.5076,-10.817,2017-03-21 18:09:56:519
-0.814,0.8811,-7.2496,2017-03-21 18:09:56:530
-3.7541,0.8811,-7.2496,2017-03-21 18:09:56:539
-6.5601,2.3894,-17.2191,2017-03-21 18:09:56:550
-6.5601,2.3894,-17.2191,2017-03-21 18:09:56:559
-8.7915,11.8513,-4.8123,2017-03-21 18:09:56:569
-8.7915,11.8513,-4.8123,2017-03-21 18:09:56:579
-7.1108,29.0704,2.375,2017-03-21 18:09:56:590
1.2258,31.3114,5.5115,2017-03-21 18:09:56:599
1.2258,31.3114,5.5115,2017-03-21 18:09:56:610
11.3102,16.9318,13.5512,2017-03-21 18:09:56:619
11.3102,16.9318,13.5512,2017-03-21 18:09:56:629
8.983,16.1896,31.297,2017-03-21 18:09:56:639
8.983,16.1896,31.297,2017-03-21 18:09:56:650
1.1061,30.9331,30.2579,2017-03-21 18:09:56:659
1.1061,30.9331,30.2579,2017-03-21 18:09:56:669
5.4779,45.7915,8.9591,2017-03-21 18:09:56:680
5.4779,45.7915,8.9591,2017-03-21 18:09:56:689
10.5297,39.5762,-1.0008,2017-03-21 18:09:56:699
8.9878,26.9108,-3.984,2017-03-21 18:09:56:710
8.9878,26.9108,-3.984,2017-03-21 18:09:56:719
-12.0141,-13.6996,-149.4652,2017-03-21 18:09:56:729
-12.0141,-13.6996,-149.4652,2017-03-21 18:09:56:739
22.1895,7.8099,-30.1526,2017-03-21 18:09:56:749
22.1895,7.8099,-30.1526,2017-03-21 18:09:56:759
14.303,10.908,7.5513,2017-03-21 18:09:56:769
14.303,10.908,7.5513,2017-03-21 18:09:56:779
5.2194,8.4707,3.371,2017-03-21 18:09:56:789
5.2194,8.4707,3.371,2017-03-21 18:09:56:799
3.5147,4.5729,0.9577,2017-03-21 18:09:56:809
3.735,3.6248,0.0383,2017-03-21 18:09:56:820
3.735,3.6248,0.0383,2017-03-21 18:09:56:829
3.2705,1.245,-0.8619,2017-03-21 18:09:56:839
3.2705,1.245,-0.8619,2017-03-21 18:09:56:850
3.1843,-0.7278,-1.8196,2017-03-21 18:09:56:859
3.1843,-0.7278,-1.8196,2017-03-21 18:09:56:869
4.2377,-2.2362,-2.8395,2017-03-21 18:09:56:879
4.2377,-2.2362,-2.8395,2017-03-21 18:09:56:889
4.2377,-2.2362,-2.8395,2017-03-21 18:09:56:899
3.7781,-2.873,-0.0287,2017-03-21 18:09:56:909
4.3574,1.7478,1.8723,2017-03-21 18:09:56:920
4.3574,1.7478,1.8723,2017-03-21 18:09:56:929
0.3448,11.9471,5.2864,2017-03-21 18:09:56:939
0.3448,11.9471,5.2864,2017-03-21 18:09:56:950
-7.1635,31.2252,6.6272,2017-03-21 18:09:56:959
-7.1635,31.2252,6.6272,2017-03-21 18:09:56:969
-7.1635,31.2252,6.6272,2017-03-21 18:09:56:980
6.9432,45.8729,3.6488,2017-03-21 18:09:56:989
23.1471,43.9575,19.2063,2017-03-21 18:09:56:999
23.1471,43.9575,19.2063,2017-03-21 18:09:57:010
17.9469,31.8237,14.0731,2017-03-21 18:09:57:019
17.9469,31.8237,14.0731,2017-03-21 18:09:57:031
8.9591,21.227,-28.4718,2017-03-21 18:09:57:039
-19.0291,-6.7181,-144.7391,2017-03-21 18:09:57:050
-19.0291,-6.7181,-144.7391,2017-03-21 18:09:57:059
-19.0291,-6.7181,-144.7391,2017-03-21 18:09:57:069
-15.6437,-0.9146,19.7378,2017-03-21 18:09:57:079
-11.7029,3.1125,-2.5283,2017-03-21 18:09:57:090
-11.7029,3.1125,-2.5283,2017-03-21 18:09:57:099
-11.7029,3.1125,-2.5283,2017-03-21 18:09:57:110
-4.4628,-0.0479,-3.869,2017-03-21 18:09:57:119
-4.4628,-0.0479,-3.869,2017-03-21 18:09:57:130
-1.901,-2.5474,0.5746,2017-03-21 18:09:57:139
-1.901,-2.5474,0.5746,2017-03-21 18:09:57:149
-2.2218,-5.7269,8.5329,2017-03-21 18:09:57:160
-2.2218,-5.7269,8.5329,2017-03-21 18:09:57:169
-2.9784,-7.6854,12.5696,2017-03-21 18:09:57:180
-2.9784,-7.6854,12.5696,2017-03-21 18:09:57:189
-6.7133,-3.0215,6.201,2017-03-21 18:09:57:199
-6.7133,-3.0215,6.201,2017-03-21 18:09:57:209
-3.5626,-0.8954,-1.0439,2017-03-21 18:09:57:219
-3.5626,-0.8954,-1.0439,2017-03-21 18:09:57:230
-3.2896,0.2825,-3.1125,2017-03-21 18:09:57:239
-3.2896,0.2825,-3.1125,2017-03-21 18:09:57:249
-6.7516,3.146,-3.0837,2017-03-21 18:09:57:260
-6.7516,3.146,-3.0837,2017-03-21 18:09:57:269
-22.7545,20.5087,-13.3644,2017-03-21 18:09:57:279
-22.7545,20.5087,-13.3644,2017-03-21 18:09:57:289
-13.7188,25.4695,-6.7516,2017-03-21 18:09:57:299
-6.8618,21.4568,-1.0534,2017-03-21 18:09:57:309
-6.8618,21.4568,-1.0534,2017-03-21 18:09:57:319
12.4451,15.3277,8.6718,2017-03-21 18:09:57:330
12.4451,15.3277,8.6718,2017-03-21 18:09:57:339
38.2354,17.4633,29.7934,2017-03-21 18:09:57:349
38.2354,17.4633,29.7934,2017-03-21 18:09:57:360
5.0087,24.8997,25.6754,2017-03-21 18:09:57:369
5.0087,24.8997,25.6754,2017-03-21 18:09:57:380
2.1117,42.8035,6.3111,2017-03-21 18:09:57:389
2.1117,42.8035,6.3111,2017-03-21 18:09:57:400
13.5991,31.7519,7.0485,2017-03-21 18:09:57:409
13.5991,31.7519,7.0485,2017-03-21 18:09:57:420
9.6965,13.9965,-6.0478,2017-03-21 18:09:57:429
9.6965,13.9965,-6.0478,2017-03-21 18:09:57:439
8.825,8.6862,-39.2793,2017-03-21 18:09:57:450
8.825,8.6862,-39.2793,2017-03-21 18:09:57:460
25.187,3.711,-18.2486,2017-03-21 18:09:57:469
25.187,3.711,-18.2486,2017-03-21 18:09:57:479
6.9192,9.2416,10.7787,2017-03-21 18:09:57:489
6.9192,9.2416,10.7787,2017-03-21 18:09:57:499
3.1029,5.6934,4.8746,2017-03-21 18:09:57:509
2.1165,4.3335,3.4812,2017-03-21 18:09:57:519
2.1165,4.3335,3.4812,2017-03-21 18:09:57:529
0.8763,2.4995,0.8428,2017-03-21 18:09:57:540
0.8763,2.4995,0.8428,2017-03-21 18:09:57:549
1.1061,-1.0008,-2.5283,2017-03-21 18:09:57:559
1.1061,-1.0008,-2.5283,2017-03-21 18:09:57:569
0.0958,-1.4557,-0.3735,2017-03-21 18:09:57:579
0.0958,-1.4557,-0.3735,2017-03-21 18:09:57:590
3.5578,-3.2801,1.7765,2017-03-21 18:09:57:599
3.5578,-3.2801,1.7765,2017-03-21 18:09:57:611
3.5578,-3.2801,1.7765,2017-03-21 18:09:57:619
3.3902,-2.0255,2.5618,2017-03-21 18:09:57:629
3.3902,-2.0255,2.5618,2017-03-21 18:09:57:639
3.371,4.1324,3.0071,2017-03-21 18:09:57:649
0.6321,11.3533,-1.3072,2017-03-21 18:09:57:659
0.6321,11.3533,-1.3072,2017-03-21 18:09:57:669
-10.7356,47.6494,-15.8831,2017-03-21 18:09:57:680
-10.7356,47.6494,-15.8831,2017-03-21 18:09:57:689
25.6467,52.9933,13.7284,2017-03-21 18:09:57:699
25.6467,52.9933,13.7284,2017-03-21 18:09:57:709
30.1861,42.0853,33.629,2017-03-21 18:09:57:719
30.1861,42.0853,33.629,2017-03-21 18:09:57:729
13.1346,25.1678,0.6847,2017-03-21 18:09:57:739
13.1346,25.1678,0.6847,2017-03-21 18:09:57:750
-5.0039,5.8035,-40.9265,2017-03-21 18:09:57:760
-5.0039,5.8035,-40.9265,2017-03-21 18:09:57:769
-13.5225,4.6639,5.3678,2017-03-21 18:09:57:779
-13.5225,4.6639,5.3678,2017-03-21 18:09:57:789
-7.7955,4.9752,0.4645,2017-03-21 18:09:57:799
-7.7955,4.9752,0.4645,2017-03-21 18:09:57:809
-3.7493,0.7805,4.8219,2017-03-21 18:09:57:822
-3.2082,-1.0918,6.9863,2017-03-21 18:09:57:829
-3.2082,-1.0918,6.9863,2017-03-21 18:09:57:840
-3.8259,-5.0566,8.1451,2017-03-21 18:09:57:849
-3.8259,-5.0566,8.1451,2017-03-21 18:09:57:859
-10.3525,-4.6687,10.908,2017-03-21 18:09:57:869
-10.3525,-4.6687,10.908,2017-03-21 18:09:57:880
-15.9262,-3.0742,9.0357,2017-03-21 18:09:57:889
-13.1106,-3.1651,3.9217,2017-03-21 18:09:57:900
-13.1106,-3.1651,3.9217,2017-03-21 18:09:57:910
-4.0845,-2.6145,-3.6823,2017-03-21 18:09:57:920
-4.0845,-2.6145,-3.6823,2017-03-21 18:09:57:929
-0.498,-1.403,-6.857,2017-03-21 18:09:57:939
-0.498,-1.403,-6.857,2017-03-21 18:09:57:950
-5.6216,0.091,-7.3789,2017-03-21 18:09:57:959
-5.6216,0.091,-7.3789,2017-03-21 18:09:57:970
-4.4101,1.6376,-12.4451,2017-03-21 18:09:57:979
-4.4101,1.6376,-12.4451,2017-03-21 18:09:57:989
-6.0478,6.8043,-5.9855,2017-03-21 18:09:57:999
-6.0478,6.8043,-5.9855,2017-03-21 18:09:58:010
-5.952,14.552,0.5267,2017-03-21 18:09:58:019
-5.952,14.552,0.5267,2017-03-21 18:09:58:029
-3.9792,20.7529,10.0987,2017-03-21 18:09:58:039
-3.9792,20.7529,10.0987,2017-03-21 18:09:58:050
2.2505,26.8055,27.6147,2017-03-21 18:09:58:059
2.2505,26.8055,27.6147,2017-03-21 18:09:58:069
5.6934,37.407,40.9265,2017-03-21 18:09:58:079
5.6934,37.407,40.9265,2017-03-21 18:09:58:089
4.2521,46.4475,24.7608,2017-03-21 18:09:58:099
4.2521,46.4475,24.7608,2017-03-21 18:09:58:109
3.1364,45.5377,10.9894,2017-03-21 18:09:58:119
3.1364,45.5377,10.9894,2017-03-21 18:09:58:129
10.4627,25.5701,-6.2824,2017-03-21 18:09:58:139
10.4627,25.5701,-6.2824,2017-03-21 18:09:58:151
-10.7069,18.4784,23.219,2017-03-21 18:09:58:159
-10.7069,18.4784,23.219,2017-03-21 18:09:58:169
19.4984,11.8752,-2.9784,2017-03-21 18:09:58:180
19.4984,11.8752,-2.9784,2017-03-21 18:09:58:189
8.1451,9.347,9.2225,2017-03-21 18:09:58:199
8.1451,9.347,9.2225,2017-03-21 18:09:58:210
3.2896,4.4484,4.1085,2017-03-21 18:09:58:219
3.2896,4.4484,4.1085,2017-03-21 18:09:58:229
2.9975,2.4995,1.1875,2017-03-21 18:09:58:239
2.9975,2.4995,1.1875,2017-03-21 18:09:58:249
2.9975,2.4995,1.1875,2017-03-21 18:09:58:259
0.7278,1.2067,-1.7621,2017-03-21 18:09:58:269
0.7278,1.2067,-1.7621,2017-03-21 18:09:58:279
0.6273,-0.6895,-3.1125,2017-03-21 18:09:58:289
0.6273,-0.6895,-3.1125,2017-03-21 18:09:58:300
2.7773,-4.5346,-3.9792,2017-03-21 18:09:58:309
2.7773,-4.5346,-3.9792,2017-03-21 18:09:58:319
2.8443,-2.1739,2.7198,2017-03-21 18:09:58:330
2.8443,-2.1739,2.7198,2017-03-21 18:09:58:339
2.8299,1.4365,5.0087,2017-03-21 18:09:58:350
2.8299,1.4365,5.0087,2017-03-21 18:09:58:359
-0.7326,13.7188,8.5904,2017-03-21 18:09:58:370
-7.1682,27.6051,6.1244,2017-03-21 18:09:58:379
-7.1682,27.6051,6.1244,2017-03-21 18:09:58:390
2.3128,54.9613,-12.0859,2017-03-21 18:09:58:400
2.3128,54.9613,-12.0859,2017-03-21 18:09:58:409
38.81,56.1823,7.4124,2017-03-21 18:09:58:419
38.81,56.1823,7.4124,2017-03-21 18:09:58:430
9.3134,32.7431,9.4571,2017-03-21 18:09:58:440
9.3134,32.7431,9.4571,2017-03-21 18:09:58:450
-7.5657,21.816,-67.4973,2017-03-21 18:09:58:460
-7.5657,21.816,-67.4973,2017-03-21 18:09:58:469
-13.7858,4.7884,17.2143,2017-03-21 18:09:58:479
-13.7858,4.7884,17.2143,2017-03-21 18:09:58:489
-12.8377,0.7087,6.9001,2017-03-21 18:09:58:499
-12.8377,0.7087,6.9001,2017-03-21 18:09:58:509
-9.9982,1.1636,-0.3879,2017-03-21 18:09:58:519
-9.9982,1.1636,-0.3879,2017-03-21 18:09:58:529
-5.1475,-1.3982,0.8571,2017-03-21 18:09:58:539
-5.1475,-1.3982,0.8571,2017-03-21 18:09:58:549
-5.9472,-3.6679,4.8459,2017-03-21 18:09:58:560
-5.9472,-3.6679,4.8459,2017-03-21 18:09:58:569
-9.4092,-6.924,16.6397,2017-03-21 18:09:58:579
-9.4092,-6.924,16.6397,2017-03-21 18:09:58:590
-7.8147,-5.3582,11.9997,2017-03-21 18:09:58:599
-8.078,-4.7932,5.6168,2017-03-21 18:09:58:609
-8.078,-4.7932,5.6168,2017-03-21 18:09:58:620
-3.2178,-3.0167,-3.5961,2017-03-21 18:09:58:629
-3.2178,-3.0167,-3.5961,2017-03-21 18:09:58:640
-1.8771,-1.9297,-9.0836,2017-03-21 18:09:58:649
-1.8771,-1.9297,-9.0836,2017-03-21 18:09:58:660
-1.8771,-1.9297,-9.0836,2017-03-21 18:09:58:669
-4.5155,-1.5131,-9.9311,2017-03-21 18:09:58:679
-11.0325,1.403,-3.6775,2017-03-21 18:09:58:689
-11.0325,1.403,-3.6775,2017-03-21 18:09:58:699
-15.682,10.0892,-0.2586,2017-03-21 18:09:58:709
-15.682,10.0892,-0.2586,2017-03-21 18:09:58:719
-15.682,10.0892,-0.2586,2017-03-21 18:09:58:729
-10.161,19.8527,9.754,2017-03-21 18:09:58:739
12.9718,17.9709,20.978,2017-03-21 18:09:58:749
12.9718,17.9709,20.978,2017-03-21 18:09:58:759
25.436,21.227,34.6968,2017-03-21 18:09:58:769
25.436,21.227,34.6968,2017-03-21 18:09:58:779
9.8593,32.5037,20.7482,2017-03-21 18:09:58:789
9.8593,32.5037,20.7482,2017-03-21 18:09:58:799
-3.0215,49.7467,17.6692,2017-03-21 18:09:58:809
-3.0215,49.7467,17.6692,2017-03-21 18:09:58:819
1.9297,39.8395,8.2265,2017-03-21 18:09:58:829
1.9297,39.8395,8.2265,2017-03-21 18:09:58:839
1.9297,39.8395,8.2265,2017-03-21 18:09:58:849
10.0269,17.9086,-24.8422,2017-03-21 18:09:58:859
10.0269,17.9086,-24.8422,2017-03-21 18:09:58:869
19.4218,5.2481,-38.6807,2017-03-21 18:09:58:880
19.4218,5.2481,-38.6807,2017-03-21 18:09:58:889
13.6182,9.3182,2.806,2017-03-21 18:09:58:900
7.6423,11.3102,7.0054,2017-03-21 18:09:58:909
7.6423,11.3102,7.0054,2017-03-21 18:09:58:920
3.3088,7.9104,3.5051,2017-03-21 18:09:58:930
3.3088,7.9104,3.5051,2017-03-21 18:09:58:939
3.1412,4.2617,3.802,2017-03-21 18:09:58:949
3.1412,4.2617,3.802,2017-03-21 18:09:58:960
3.6296,0.9529,-0.0479,2017-03-21 18:09:58:969
3.6296,0.9529,-0.0479,2017-03-21 18:09:58:979
1.3168,0.1676,0.0335,2017-03-21 18:09:58:990
1.3168,0.1676,0.0335,2017-03-21 18:09:58:999
1.1636,-1.494,1.2929,2017-03-21 18:09:59:010
1.1636,-1.494,1.2929,2017-03-21 18:09:59:019
5.2337,-3.3471,4.6208,2017-03-21 18:09:59:029
4.64,-2.2362,4.8937,2017-03-21 18:09:59:039
4.64,-2.2362,4.8937,2017-03-21 18:09:59:049
2.8156,5.205,4.1899,2017-03-21 18:09:59:059
2.8156,5.205,4.1899,2017-03-21 18:09:59:069
-3.395,29.6689,-3.6057,2017-03-21 18:09:59:079
-3.395,29.6689,-3.6057,2017-03-21 18:09:59:089
16.0747,54.5782,-11.4299,2017-03-21 18:09:59:099
16.0747,54.5782,-11.4299,2017-03-21 18:09:59:109
25.6132,48.9949,21.7777,2017-03-21 18:09:59:120
25.6132,48.9949,21.7777,2017-03-21 18:09:59:129
12.0955,32.7718,22.7976,2017-03-21 18:09:59:139
12.0955,32.7718,22.7976,2017-03-21 18:09:59:149
2.9353,17.6644,-79.9759,2017-03-21 18:09:59:159
2.9353,17.6644,-79.9759,2017-03-21 18:09:59:169
-3.8259,1.7957,8.9591,2017-03-21 18:09:59:179
-3.8259,1.7957,8.9591,2017-03-21 18:09:59:189
-9.4523,3.2609,11.066,2017-03-21 18:09:59:199
-9.4523,3.2609,11.066,2017-03-21 18:09:59:210
-7.1443,1.7621,5.8706,2017-03-21 18:09:59:219
-7.1443,1.7621,5.8706,2017-03-21 18:09:59:229
-7.1539,-1.3934,6.0861,2017-03-21 18:09:59:240
-7.1539,-1.3934,6.0861,2017-03-21 18:09:59:250
-8.7101,-5.2433,6.4883,2017-03-21 18:09:59:259
-11.7076,-7.4029,9.9024,2017-03-21 18:09:59:270
-11.7076,-7.4029,9.9024,2017-03-21 18:09:59:280
-11.7076,-7.4029,9.9024,2017-03-21 18:09:59:289
-14.5376,-5.9137,13.7762,2017-03-21 18:09:59:299
-13.6613,-5.4971,5.3774,2017-03-21 18:09:59:310
-13.6613,-5.4971,5.3774,2017-03-21 18:09:59:319
-2.9113,-4.9895,-8.7771,2017-03-21 18:09:59:329
-2.9113,-4.9895,-8.7771,2017-03-21 18:09:59:339
2.5091,-3.6536,-13.216,2017-03-21 18:09:59:349
1.7717,-1.6376,-16.113,2017-03-21 18:09:59:359
1.7717,-1.6376,-16.113,2017-03-21 18:09:59:369
-4.3862,-0.7135,-16.2758,2017-03-21 18:09:59:380
-4.3862,-0.7135,-16.2758,2017-03-21 18:09:59:389
-4.6687,0.1101,-2.1883,2017-03-21 18:09:59:399
-4.6687,0.1101,-2.1883,2017-03-21 18:09:59:410
-4.6687,8.6048,2.5426,2017-03-21 18:09:59:419
-9.1602,8.6048,2.5426,2017-03-21 18:09:59:429
-11.9135,22.0937,14.6477,2017-03-21 18:09:59:440
-11.9135,22.0937,14.6477,2017-03-21 18:09:59:451
-6.3734,22.1033,15.8544,2017-03-21 18:09:59:460
-6.3734,22.1033,15.8544,2017-03-21 18:09:59:469
3.7972,22.7306,23.444,2017-03-21 18:09:59:480
3.7972,22.7306,23.444,2017-03-21 18:09:59:490
11.722,29.578,35.7742,2017-03-21 18:09:59:499
11.722,29.578,35.7742,2017-03-21 18:09:59:510
8.3462,38.2833,12.5169,2017-03-21 18:09:59:519
8.3462,38.2833,12.5169,2017-03-21 18:09:59:529
9.4092,49.2104,8.509,2017-03-21 18:09:59:539
9.4092,49.2104,8.509,2017-03-21 18:09:59:549
10.6015,36.7558,9.1889,2017-03-21 18:09:59:559
10.6015,36.7558,9.1889,2017-03-21 18:09:59:569
6.9192,16.9079,-11.6646,2017-03-21 18:09:59:579
6.9192,16.9079,-11.6646,2017-03-21 18:09:59:590
17.8368,11.315,-30.8948,2017-03-21 18:09:59:599
17.8368,11.315,-30.8948,2017-03-21 18:09:59:609
28.2372,6.8905,-29.4535,2017-03-21 18:09:59:620
28.2372,6.8905,-29.4535,2017-03-21 18:09:59:629
12.56,9.6774,7.8099,2017-03-21 18:09:59:639
7.5513,8.5042,5.0278,2017-03-21 18:09:59:649
3.4237,4.7645,2.1452,2017-03-21 18:09:59:659
3.4237,4.7645,2.1452,2017-03-21 18:09:59:669
1.4365,2.9497,-0.0048,2017-03-21 18:09:59:680
1.4365,2.9497,-0.0048,2017-03-21 18:09:59:689
0.3783,1.5945,-1.5083,2017-03-21 18:09:59:699
0.3783,1.5945,-1.5083,2017-03-21 18:09:59:709
3.7589,-4.8746,-7.6279,2017-03-21 18:09:59:719
3.7589,-4.8746,-7.6279,2017-03-21 18:09:59:729
0.8667,-1.4605,1.8052,2017-03-21 18:09:59:739
0.8667,-1.4605,1.8052,2017-03-21 18:09:59:749
2.8012,-0.3496,4.4389,2017-03-21 18:09:59:760
2.8012,-0.3496,4.4389,2017-03-21 18:09:59:769
2.0207,8.0732,7.3215,2017-03-21 18:09:59:779
2.0207,8.0732,7.3215,2017-03-21 18:09:59:790
-6.5218,28.8118,3.2465,2017-03-21 18:09:59:799
-6.5218,28.8118,3.2465,2017-03-21 18:09:59:809
13.0676,48.4299,-12.5791,2017-03-21 18:09:59:820
13.0676,48.4299,-12.5791,2017-03-21 18:09:59:829
32.4462,49.0907,5.4684,2017-03-21 18:09:59:839
32.4462,49.0907,5.4684,2017-03-21 18:09:59:850
8.0732,35.099,14.4658,2017-03-21 18:09:59:860
8.0732,35.099,14.4658,2017-03-21 18:09:59:869
4.6591,26.2788,-17.5303,2017-03-21 18:09:59:879
4.6591,26.2788,-17.5303,2017-03-21 18:09:59:889
-9.9503,1.1923,-20.5279,2017-03-21 18:09:59:900
-9.9503,1.1923,-20.5279,2017-03-21 18:09:59:909
-9.7444,5.2241,20.0634,2017-03-21 18:09:59:919
-9.7444,5.2241,20.0634,2017-03-21 18:09:59:929
-8.2265,3.984,4.8985,2017-03-21 18:09:59:939
-8.2265,3.984,4.8985,2017-03-21 18:09:59:949
-5.0757,0.6416,4.7597,2017-03-21 18:09:59:960
-5.272,-1.3551,5.3439,2017-03-21 18:09:59:969
-5.272,-1.3551,5.3439,2017-03-21 18:09:59:980
-6.3734,-4.7549,7.4316,2017-03-21 18:09:59:989
-6.3734,-4.7549,7.4316,2017-03-21 18:09:59:999
-9.3182,-7.7572,13.3596,2017-03-21 18:10:00:009
-9.3182,-7.7572,13.3596,2017-03-21 18:10:00:019
-11.3533,-5.1475,12.9862,2017-03-21 18:10:00:029
-11.3533,-5.1475,12.9862,2017-03-21 18:10:00:039
-14.4418,-4.1228,6.359,2017-03-21 18:10:00:049
-14.4418,-4.1228,6.359,2017-03-21 18:10:00:059
-5.6455,-2.988,-6.9911,2017-03-21 18:10:00:069
-5.6455,-2.988,-6.9911,2017-03-21 18:10:00:079
1.0774,-1.6233,-16.3093,2017-03-21 18:10:00:090
1.0774,-1.6233,-16.3093,2017-03-21 18:10:00:099
-4.9752,-1.6089,-16.5727,2017-03-21 18:10:00:109
-4.9752,-1.6089,-16.5727,2017-03-21 18:10:00:119
-5.023,-1.4365,-25.7329,2017-03-21 18:10:00:129
-5.023,-1.4365,-25.7329,2017-03-21 18:10:00:139
-9.3087,4.367,3.4716,2017-03-21 18:10:00:149
-9.3087,4.367,3.4716,2017-03-21 18:10:00:160
-17.085,26.523,16.2518,2017-03-21 18:10:00:169
-17.085,26.523,16.2518,2017-03-21 18:10:00:179
-0.814,30.2723,26.5278,2017-03-21 18:10:00:189
-0.814,30.2723,26.5278,2017-03-21 18:10:00:200
12.469,20.3938,24.3299,2017-03-21 18:10:00:209
12.469,20.3938,24.3299,2017-03-21 18:10:00:219
9.9742,25.8765,29.5828,2017-03-21 18:10:00:229
7.0485,30.0089,18.5646,2017-03-21 18:10:00:240
7.0485,30.0089,18.5646,2017-03-21 18:10:00:249
-1.0965,43.7469,3.4477,2017-03-21 18:10:00:259
-1.0965,43.7469,3.4477,2017-03-21 18:10:00:270
1.4269,45.1116,3.893,2017-03-21 18:10:00:280
1.4269,45.1116,3.893,2017-03-21 18:10:00:289
11.3342,23.6068,-4.9847,2017-03-21 18:10:00:299
11.3342,23.6068,-4.9847,2017-03-21 18:10:00:309
6.4596,16.8743,-17.5639,2017-03-21 18:10:00:319
6.4596,16.8743,-17.5639,2017-03-21 18:10:00:329
16.8695,10.5536,11.8896,2017-03-21 18:10:00:340
16.8695,10.5536,11.8896,2017-03-21 18:10:00:349
9.663,7.5896,7.3358,2017-03-21 18:10:00:360
9.663,7.5896,7.3358,2017-03-21 18:10:00:369
5.6695,3.7733,3.4189,2017-03-21 18:10:00:379
5.0422,2.375,2.2314,2017-03-21 18:10:00:390
5.0422,2.375,2.2314,2017-03-21 18:10:00:399
4.051,1.336,0.3879,2017-03-21 18:10:00:409
4.051,1.336,0.3879,2017-03-21 18:10:00:420
2.7773,0.4357,-0.4836,2017-03-21 18:10:00:430
2.7773,0.4357,-0.4836,2017-03-21 18:10:00:440
4.0079,-1.4461,0.0527,2017-03-21 18:10:00:449
5.0135,-2.0063,0.4166,2017-03-21 18:10:00:459
5.0135,-2.0063,0.4166,2017-03-21 18:10:00:469
4.956,-2.4469,0.3879,2017-03-21 18:10:00:480
4.956,-2.4469,0.3879,2017-03-21 18:10:00:490
2.3224,-2.1835,0.8188,2017-03-21 18:10:00:500
2.3224,-2.1835,0.8188,2017-03-21 18:10:00:509
-1.2354,3.7589,2.9497,2017-03-21 18:10:00:520
-1.2354,3.7589,2.9497,2017-03-21 18:10:00:529
-0.5219,19.5558,9.414,2017-03-21 18:10:00:540
-0.5219,19.5558,9.414,2017-03-21 18:10:00:550
-0.5219,19.5558,9.414,2017-03-21 18:10:00:559
10.8697,32.9203,7.5322,2017-03-21 18:10:00:569
10.8697,32.9203,7.5322,2017-03-21 18:10:00:579
31.9865,56.0914,0.2011,2017-03-21 18:10:00:589
31.9865,56.0914,0.2011,2017-03-21 18:10:00:599
21.1552,50.9295,3.237,2017-03-21 18:10:00:609
21.1552,50.9295,3.237,2017-03-21 18:10:00:619
14.2982,34.261,15.5096,2017-03-21 18:10:00:629
14.2982,34.261,15.5096,2017-03-21 18:10:00:639
-17.765,-8.8969,-110.66,2017-03-21 18:10:00:649
-17.765,-8.8969,-110.66,2017-03-21 18:10:00:659
-15.8544,1.4269,-2.6767,2017-03-21 18:10:00:669
-15.8544,1.4269,-2.6767,2017-03-21 18:10:00:679
-7.0054,3.7158,0.3256,2017-03-21 18:10:00:689
-4.8028,1.8675,-2.3224,2017-03-21 18:10:00:700
-4.8028,1.8675,-2.3224,2017-03-21 18:10:00:709
-1.1971,-2.8587,-2.1213,2017-03-21 18:10:00:719
-1.1971,-2.8587,-2.1213,2017-03-21 18:10:00:729
-0.4166,-4.7932,-0.158,2017-03-21 18:10:00:739
-0.4166,-4.7932,-0.158,2017-03-21 18:10:00:749
-0.5267,-5.9568,2.3128,2017-03-21 18:10:00:759
-0.5267,-5.9568,2.3128,2017-03-21 18:10:00:769
1.6376,-8.1307,5.4875,2017-03-21 18:10:00:780
1.6376,-8.1307,5.4875,2017-03-21 18:10:00:789
-2.6432,-3.5291,4.3574,2017-03-21 18:10:00:800
-2.6432,-3.5291,4.3574,2017-03-21 18:10:00:809
-2.8395,-1.7621,1.6041,2017-03-21 18:10:00:819
-2.8395,-1.7621,1.6041,2017-03-21 18:10:00:829
-1.5036,-0.9816,0.3448,2017-03-21 18:10:00:839
-2.6001,-0.0144,-1.4174,2017-03-21 18:10:00:850
-2.6001,-0.0144,-1.4174,2017-03-21 18:10:00:860
-5.0278,3.1651,-2.4852,2017-03-21 18:10:00:869
-5.0278,3.1651,-2.4852,2017-03-21 18:10:00:880
-23.0179,17.4298,-0.5267,2017-03-21 18:10:00:889
-23.0179,17.4298,-0.5267,2017-03-21 18:10:00:900
-25.5318,26.4368,2.3128,2017-03-21 18:10:00:909
-25.5318,26.4368,2.3128,2017-03-21 18:10:00:919
-3.3806,23.5015,9.912,2017-03-21 18:10:00:930
-3.3806,23.5015,9.912,2017-03-21 18:10:00:939
52.8017,27.2604,39.3367,2017-03-21 18:10:00:949
52.8017,27.2604,39.3367,2017-03-21 18:10:00:960
20.6859,33.605,10.6398,2017-03-21 18:10:00:969
20.6859,33.605,10.6398,2017-03-21 18:10:00:979
2.8395,35.8173,-5.4588,2017-03-21 18:10:00:989
2.8395,35.8173,-5.4588,2017-03-21 18:10:01:000
1.2641,19.9964,0.1053,2017-03-21 18:10:01:009
1.2641,19.9964,0.1053,2017-03-21 18:10:01:019
0.68,6.9959,0.6464,2017-03-21 18:10:01:029
0.68,6.9959,0.6464,2017-03-21 18:10:01:039
12.6988,8.5425,-53.8456,2017-03-21 18:10:01:050
12.6988,8.5425,-53.8456,2017-03-21 18:10:01:059
27.1455,3.1939,-33.1357,2017-03-21 18:10:01:069
27.1455,3.1939,-33.1357,2017-03-21 18:10:01:079
18.0858,5.2002,-0.158,2017-03-21 18:10:01:089
18.0858,5.2002,-0.158,2017-03-21 18:10:01:099
0.0527,8.4084,10.477,2017-03-21 18:10:01:110
0.0527,8.4084,10.477,2017-03-21 18:10:01:119
-2.9257,6.4883,4.0127,2017-03-21 18:10:01:129
-2.9257,6.4883,4.0127,2017-03-21 18:10:01:139
-5.9616,-2.3559,-6.7852,2017-03-21 18:10:01:149
-0.5171,1.0822,-11.2863,2017-03-21 18:10:01:160
-0.5171,1.0822,-11.2863,2017-03-21 18:10:01:169
-0.5698,3.1699,1.7526,2017-03-21 18:10:01:179
-0.5698,3.1699,1.7526,2017-03-21 18:10:01:189
0.0718,2.4421,1.9249,2017-03-21 18:10:01:200
0.0718,2.4421,1.9249,2017-03-21 18:10:01:209
4.2282,1.6568,-6.3446,2017-03-21 18:10:01:219
4.2282,1.6568,-6.3446,2017-03-21 18:10:01:229
6.6894,6.8714,-0.7709,2017-03-21 18:10:01:239
11.3389,16.8983,4.4867,2017-03-21 18:10:01:249
11.3389,16.8983,4.4867,2017-03-21 18:10:01:259
25.4312,54.1616,-8.5329,2017-03-21 18:10:01:270
25.4312,54.1616,-8.5329,2017-03-21 18:10:01:279
26.8629,79.7078,10.7548,2017-03-21 18:10:01:289
26.8629,79.7078,10.7548,2017-03-21 18:10:01:300
18.6556,32.1302,3.1603,2017-03-21 18:10:01:309
18.6556,32.1302,3.1603,2017-03-21 18:10:01:320
1.1205,14.0252,-0.8763,2017-03-21 18:10:01:329
1.1205,14.0252,-0.8763,2017-03-21 18:10:01:340
3.4716,7.2927,3.2896,2017-03-21 18:10:01:349
-0.4645,6.3063,1.719,2017-03-21 18:10:01:359
-0.4645,6.3063,1.719,2017-03-21 18:10:01:369
-3.9409,6.4117,5.928,2017-03-21 18:10:01:379
-3.9409,6.4117,5.928,2017-03-21 18:10:01:389
-9.9647,5.2481,10.8026,2017-03-21 18:10:01:400
-9.9647,5.2481,10.8026,2017-03-21 18:10:01:409
-14.7196,5.047,14.0396,2017-03-21 18:10:01:419
-14.7196,5.047,14.0396,2017-03-21 18:10:01:429
-23.0801,4.8554,14.5855,2017-03-21 18:10:01:440
-23.0801,4.8554,14.5855,2017-03-21 18:10:01:449
-21.2414,2.9161,1.834,2017-03-21 18:10:01:459
-21.2414,2.9161,1.834,2017-03-21 18:10:01:469
-18.579,1.063,-2.7438,2017-03-21 18:10:01:479
-18.579,1.063,-2.7438,2017-03-21 18:10:01:489
-13.3118,-2.1548,-1.5179,2017-03-21 18:10:01:499
-13.3118,-2.1548,-1.5179,2017-03-21 18:10:01:509
-9.5624,-6.2728,-5.5545,2017-03-21 18:10:01:520
-9.5624,-6.2728,-5.5545,2017-03-21 18:10:01:529
11.0325,-16.0364,-36.7127,2017-03-21 18:10:01:540
11.0325,-16.0364,-36.7127,2017-03-21 18:10:01:549
-2.2984,-13.9486,-27.7823,2017-03-21 18:10:01:559
-2.2984,-13.9486,-27.7823,2017-03-21 18:10:01:571
-8.4515,-7.4795,17.3101,2017-03-21 18:10:01:579
-2.5522,1.0056,-3.5578,2017-03-21 18:10:01:591
-2.5522,1.0056,-3.5578,2017-03-21 18:10:01:600
-2.5522,1.0056,-3.5578,2017-03-21 18:10:01:609
9.2656,3.9744,-14.7148,2017-03-21 18:10:01:619
9.2656,3.9744,-14.7148,2017-03-21 18:10:01:630
9.2656,3.9744,-14.7148,2017-03-21 18:10:01:639
9.2656,3.9744,-14.7148,2017-03-21 18:10:01:649
20.911,4.4724,14.6573,2017-03-21 18:10:01:659
9.7252,0.6847,-1.3264,2017-03-21 18:10:01:669
9.7252,0.6847,-1.3264,2017-03-21 18:10:01:679
1.4413,3.8642,8.4994,2017-03-21 18:10:01:689
1.4413,3.8642,8.4994,2017-03-21 18:10:01:699
-21.2797,37.1436,41.3718,2017-03-21 18:10:01:709
-21.2797,37.1436,41.3718,2017-03-21 18:10:01:719
-27.179,70.3656,30.8565,2017-03-21 18:10:01:729
-27.179,70.3656,30.8565,2017-03-21 18:10:01:739
12.2966,53.7881,11.5975,2017-03-21 18:10:01:749
12.2966,53.7881,11.5975,2017-03-21 18:10:01:761
25.0864,24.5454,-1.6951,2017-03-21 18:10:01:769
25.0864,24.5454,-1.6951,2017-03-21 18:10:01:781
13.781,-12.9718,-156.734,2017-03-21 18:10:01:789
13.781,-12.9718,-156.734,2017-03-21 18:10:01:799
9.2991,20.4225,10.4962,2017-03-21 18:10:01:809
9.2991,20.4225,10.4962,2017-03-21 18:10:01:819
12.7707,13.2495,8.9016,2017-03-21 18:10:01:829
12.7707,13.2495,8.9016,2017-03-21 18:10:01:839
10.9463,3.5626,-1.8244,2017-03-21 18:10:01:849
10.9463,3.5626,-1.8244,2017-03-21 18:10:01:859
6.7325,-0.0096,-1.9154,2017-03-21 18:10:01:869
6.7325,-0.0096,-1.9154,2017-03-21 18:10:01:879
4.2282,-0.4357,0.0575,2017-03-21 18:10:01:889
4.2282,-0.4357,0.0575,2017-03-21 18:10:01:900
3.7828,-1.6424,-0.5842,2017-03-21 18:10:01:910
4.9033,-2.2649,-0.6369,2017-03-21 18:10:01:920
4.9033,-2.2649,-0.6369,2017-03-21 18:10:01:929
5.6934,-3.0071,0.3639,2017-03-21 18:10:01:939
5.6934,-3.0071,0.3639,2017-03-21 18:10:01:949
3.6488,-1.3838,3.4429,2017-03-21 18:10:01:959
3.6488,-1.3838,3.4429,2017-03-21 18:10:01:969
0.8715,7.7141,11.1474,2017-03-21 18:10:01:979
-5.2816,17.9326,14.1689,2017-03-21 18:10:01:989
-20.8966,31.5891,14.6717,2017-03-21 18:10:01:999
-20.8966,31.5891,14.6717,2017-03-21 18:10:02:009
-2.8108,30.6362,8.6766,2017-03-21 18:10:02:019
-2.8108,30.6362,8.6766,2017-03-21 18:10:02:029
44.2113,36.9952,-4.616,2017-03-21 18:10:02:039
44.2113,36.9952,-4.616,2017-03-21 18:10:02:049
52.9454,41.2042,-3.2896,2017-03-21 18:10:02:059
10.9846,37.8188,-5.3295,2017-03-21 18:10:02:069
10.9846,37.8188,-5.3295,2017-03-21 18:10:02:079
10.9846,37.8188,-5.3295,2017-03-21 18:10:02:090
-7.0102,20.9684,-60.9229,2017-03-21 18:10:02:102
-5.1092,7.3837,9.3087,2017-03-21 18:10:02:110
-5.1092,7.3837,9.3087,2017-03-21 18:10:02:120
-5.1092,7.3837,9.3087,2017-03-21 18:10:02:129
-7.5226,6.7181,3.2034,2017-03-21 18:10:02:140
-5.5162,3.8403,5.7413,2017-03-21 18:10:02:149
-5.5162,3.8403,5.7413,2017-03-21 18:10:02:159
-6.8187,-2.4325,9.1746,2017-03-21 18:10:02:170
-6.8187,-2.4325,9.1746,2017-03-21 18:10:02:179
-18.5359,-4.3527,21.0307,2017-03-21 18:10:02:189
-18.5359,-4.3527,21.0307,2017-03-21 18:10:02:199
-15.5863,-3.2753,20.5614,2017-03-21 18:10:02:210
-15.5863,-3.2753,20.5614,2017-03-21 18:10:02:220
-15.457,-4.6591,6.019,2017-03-21 18:10:02:229
-15.457,-4.6591,6.019,2017-03-21 18:10:02:239
-8.7197,-4.9225,-4.9991,2017-03-21 18:10:02:249
-1.6185,-5.5785,-14.1354,2017-03-21 18:10:02:259
-1.6185,-5.5785,-14.1354,2017-03-21 18:10:02:269
4.1851,-4.8554,-22.4624,2017-03-21 18:10:02:279
4.1851,-4.8554,-22.4624,2017-03-21 18:10:02:289
-4.8028,-5.9424,-4.5777,2017-03-21 18:10:02:300
-4.8028,-5.9424,-4.5777,2017-03-21 18:10:02:309
-7.3502,-2.4948,1.3216,2017-03-21 18:10:02:319
-7.3502,-2.4948,1.3216,2017-03-21 18:10:02:330
-3.7158,-1.1396,-2.4086,2017-03-21 18:10:02:339
-3.7158,-1.1396,-2.4086,2017-03-21 18:10:02:349
-8.9447,8.0493,1.7047,2017-03-21 18:10:02:359
-8.9447,8.0493,1.7047,2017-03-21 18:10:02:369
-7.6279,24.6459,17.267,2017-03-21 18:10:02:380
-7.6279,24.6459,17.267,2017-03-21 18:10:02:390
10.2855,30.4064,29.8605,2017-03-21 18:10:02:399
10.2855,30.4064,29.8605,2017-03-21 18:10:02:409
10.5153,26.3841,31.3688,2017-03-21 18:10:02:420
10.5153,26.3841,31.3688,2017-03-21 18:10:02:431
-0.6033,34.0886,18.8807,2017-03-21 18:10:02:440
-0.6033,34.0886,18.8807,2017-03-21 18:10:02:453
-0.6033,34.0886,18.8807,2017-03-21 18:10:02:460
-7.9296,50.0963,4.3383,2017-03-21 18:10:02:471
-4.5921,54.8464,5.4731,2017-03-21 18:10:02:479
8.0828,41.2473,4.7645,2017-03-21 18:10:02:489
8.0828,41.2473,4.7645,2017-03-21 18:10:02:499
48.5448,-10.4052,-156.734,2017-03-21 18:10:02:510
-2.2984,21.1695,25.685,2017-03-21 18:10:02:519
-2.2984,21.1695,25.685,2017-03-21 18:10:02:529
17.8464,12.8425,3.4189,2017-03-21 18:10:02:539
17.8464,12.8425,3.4189,2017-03-21 18:10:02:549
9.8162,10.0413,9.2368,2017-03-21 18:10:02:560
9.8162,10.0413,9.2368,2017-03-21 18:10:02:569
5.612,5.3056,3.6105,2017-03-21 18:10:02:579
5.612,5.3056,3.6105,2017-03-21 18:10:02:590
5.8371,2.2601,-0.0431,2017-03-21 18:10:02:599
5.3486,1.1253,-1.5371,2017-03-21 18:10:02:609
5.3486,1.1253,-1.5371,2017-03-21 18:10:02:619
4.7788,-1.0534,-2.8108,2017-03-21 18:10:02:630
4.7788,-1.0534,-2.8108,2017-03-21 18:10:02:639
4.6591,-2.7629,-6.0047,2017-03-21 18:10:02:649
4.6591,-2.7629,-6.0047,2017-03-21 18:10:02:659
4.8363,-2.2793,-2.399,2017-03-21 18:10:02:669
4.8363,-2.2793,-2.399,2017-03-21 18:10:02:679
4.8363,-2.2793,-2.399,2017-03-21 18:10:02:689
4.4149,-0.1867,0.1676,2017-03-21 18:10:02:701
4.4149,-0.1867,0.1676,2017-03-21 18:10:02:709
3.96,6.3638,4.4772,2017-03-21 18:10:02:719
-0.0766,14.6621,10.07,2017-03-21 18:10:02:729
-0.0766,14.6621,10.07,2017-03-21 18:10:02:740
-12.129,36.6552,21.8112,2017-03-21 18:10:02:749
-12.129,36.6552,21.8112,2017-03-21 18:10:02:759
9.2177,41.7932,9.1315,2017-03-21 18:10:02:770
9.2177,41.7932,9.1315,2017-03-21 18:10:02:779
22.5055,40.5099,3.0263,2017-03-21 18:10:02:789
22.5055,40.5099,3.0263,2017-03-21 18:10:02:799
16.4577,32.7192,9.0788,2017-03-21 18:10:02:809
16.4577,32.7192,9.0788,2017-03-21 18:10:02:820
10.5441,22.2804,-10.094,2017-03-21 18:10:02:829
-18.5598,11.1139,-156.734,2017-03-21 18:10:02:839
-18.5598,11.1139,-156.734,2017-03-21 18:10:02:849
-12.9718,4.7166,14.4035,2017-03-21 18:10:02:859
-12.9718,4.7166,14.4035,2017-03-21 18:10:02:871
-9.1937,5.1619,1.245,2017-03-21 18:10:02:879
-9.1937,5.1619,1.245,2017-03-21 18:10:02:889
-5.0422,0.1915,3.4524,2017-03-21 18:10:02:899
-5.0422,0.1915,3.4524,2017-03-21 18:10:02:909
-5.138,-3.7685,7.4986,2017-03-21 18:10:02:920
-5.138,-3.7685,7.4986,2017-03-21 18:10:02:930
-5.1715,-7.4986,16.1752,2017-03-21 18:10:02:940
-5.1715,-7.4986,16.1752,2017-03-21 18:10:02:949
-5.3247,-5.4731,15.3947,2017-03-21 18:10:02:959
-5.3247,-5.4731,15.3947,2017-03-21 18:10:02:969
-7.2784,-3.8499,6.4643,2017-03-21 18:10:02:980
-7.2784,-3.8499,6.4643,2017-03-21 18:10:02:989
-4.6495,-2.375,-0.7757,2017-03-21 18:10:02:999
-4.2569,-1.2163,-2.897,2017-03-21 18:10:03:009
-4.2569,-1.2163,-2.897,2017-03-21 18:10:03:019
-5.2146,0.4884,-7.58,2017-03-21 18:10:03:029
-5.2146,0.4884,-7.58,2017-03-21 18:10:03:039
-10.4004,-0.6608,-9.9311,2017-03-21 18:10:03:049
-10.4004,-0.6608,-9.9311,2017-03-21 18:10:03:059
-7.1826,-0.1006,-8.2935,2017-03-21 18:10:03:069
-7.1826,-0.1006,-8.2935,2017-03-21 18:10:03:079
-7.1826,-0.1006,-8.2935,2017-03-21 18:10:03:089
-11.4922,7.9344,1.3455,2017-03-21 18:10:03:099
-11.4922,7.9344,1.3455,2017-03-21 18:10:03:109
-12.1625,25.3929,-6.1292,2017-03-21 18:10:03:119
-12.1625,25.3929,-6.1292,2017-03-21 18:10:03:129
8.9256,27.7632,8.3845,2017-03-21 18:10:03:139
16.6301,18.7705,30.0041,2017-03-21 18:10:03:149
16.6301,18.7705,30.0041,2017-03-21 18:10:03:159
11.7603,30.2914,32.3505,2017-03-21 18:10:03:169
11.7603,30.2914,32.3505,2017-03-21 18:10:03:179
4.3,33.7343,26.8486,2017-03-21 18:10:03:189
4.3,33.7343,26.8486,2017-03-21 18:10:03:199
-4.9129,47.07,18.737,2017-03-21 18:10:03:209
-4.9129,47.07,18.737,2017-03-21 18:10:03:220
-1.5945,40.802,-1.2402,2017-03-21 18:10:03:229
-1.5945,40.802,-1.2402,2017-03-21 18:10:03:239
16.2854,-21.3802,-154.8234,2017-03-21 18:10:03:249
16.2854,-21.3802,-154.8234,2017-03-21 18:10:03:259
28.9363,4.6448,-21.1695,2017-03-21 18:10:03:269
28.9363,4.6448,-21.1695,2017-03-21 18:10:03:279
8.7484,13.1633,8.4276,2017-03-21 18:10:03:289
8.7484,13.1633,8.4276,2017-03-21 18:10:03:299
3.7206,9.8689,5.2864,2017-03-21 18:10:03:309
3.7206,9.8689,5.2864,2017-03-21 18:10:03:319
3.304,5.3343,4.5107,2017-03-21 18:10:03:329
3.9313,1.6807,2.4852,2017-03-21 18:10:03:340
3.9313,1.6807,2.4852,2017-03-21 18:10:03:349
3.9313,1.6807,2.4852,2017-03-21 18:10:03:359
4.2138,-0.7087,1.5467,2017-03-21 18:10:03:369
4.1085,-0.8811,1.4748,2017-03-21 18:10:03:379
4.1085,-0.8811,1.4748,2017-03-21 18:10:03:389
3.3662,-1.8052,0.6129,2017-03-21 18:10:03:399
3.3662,-1.8052,0.6129,2017-03-21 18:10:03:409
2.8826,-1.7382,0.2203,2017-03-21 18:10:03:419
2.8826,-1.7382,0.2203,2017-03-21 18:10:03:430
3.6727,0.5555,-0.3304,2017-03-21 18:10:03:439
4.4628,4.4772,1.6281,2017-03-21 18:10:03:449
4.4628,4.4772,1.6281,2017-03-21 18:10:03:459
8.8681,26.5613,-1.1253,2017-03-21 18:10:03:469
8.8681,26.5613,-1.1253,2017-03-21 18:10:03:479
9.2129,50.6613,1.8723,2017-03-21 18:10:03:489
9.2129,50.6613,1.8723,2017-03-21 18:10:03:500
12.0859,54.0036,30.3393,2017-03-21 18:10:03:509
12.0859,54.0036,30.3393,2017-03-21 18:10:03:519
12.5743,23.377,12.2104,2017-03-21 18:10:03:529
12.5743,23.377,12.2104,2017-03-21 18:10:03:539
14.5472,15.3516,-20.5614,2017-03-21 18:10:03:549
-0.3448,6.9384,-69.5516,2017-03-21 18:10:03:560
-0.3448,6.9384,-69.5516,2017-03-21 18:10:03:569
-7.1874,3.4381,3.6344,2017-03-21 18:10:03:579
-7.1874,3.4381,3.6344,2017-03-21 18:10:03:589
-10.8362,5.5545,-5.8993,2017-03-21 18:10:03:599
-10.8362,5.5545,-5.8993,2017-03-21 18:10:03:609
-6.0717,4.2665,-0.5028,2017-03-21 18:10:03:620
0.3879,-2.2505,-0.7661,2017-03-21 18:10:03:629
0.3879,-2.2505,-0.7661,2017-03-21 18:10:03:639
0.1101,-4.2234,2.9113,2017-03-21 18:10:03:649
0.1101,-4.2234,2.9113,2017-03-21 18:10:03:659
0.158,-4.5394,3.2322,2017-03-21 18:10:03:669
0.158,-4.5394,3.2322,2017-03-21 18:10:03:679
-1.8531,-5.4444,2.2649,2017-03-21 18:10:03:689
-1.8531,-5.4444,2.2649,2017-03-21 18:10:03:699
-5.8945,-1.6951,0.5411,2017-03-21 18:10:03:709
-5.8945,-1.6951,0.5411,2017-03-21 18:10:03:719
-4.5298,0.5602,1.5993,2017-03-21 18:10:03:729
-4.5298,0.5602,1.5993,2017-03-21 18:10:03:739
-6.0382,4.9943,0.9385,2017-03-21 18:10:03:750
-6.0382,4.9943,0.9385,2017-03-21 18:10:03:760
-6.0382,4.9943,0.9385,2017-03-21 18:10:03:769
-28.3473,22.1464,6.5553,2017-03-21 18:10:03:779
-28.3473,22.1464,6.5553,2017-03-21 18:10:03:789
-26.4607,28.1558,8.102,2017-03-21 18:10:03:800
10.094,16.8839,6.2297,2017-03-21 18:10:03:810
10.094,16.8839,6.2297,2017-03-21 18:10:03:820
52.4953,16.4721,5.9759,2017-03-21 18:10:03:831
52.4953,16.4721,5.9759,2017-03-21 18:10:03:839
52.4953,16.4721,5.9759,2017-03-21 18:10:03:849
33.9833,9.7109,13.4841,2017-03-21 18:10:03:859
33.9833,9.7109,13.4841,2017-03-21 18:10:03:869
-31.2778,20.413,-61.3203,2017-03-21 18:10:03:879
-31.2778,20.413,-61.3203,2017-03-21 18:10:03:890
1.652,17.243,-0.4262,2017-03-21 18:10:03:899
1.652,17.243,-0.4262,2017-03-21 18:10:03:909
19.5032,3.2465,-10.8218,2017-03-21 18:10:03:919
19.5032,3.2465,-10.8218,2017-03-21 18:10:03:929
15.3516,-8.9208,-45.3366,2017-03-21 18:10:03:939
15.3516,-8.9208,-45.3366,2017-03-21 18:10:03:950
17.5926,-0.7949,-7.4364,2017-03-21 18:10:03:959
17.5926,-0.7949,-7.4364,2017-03-21 18:10:03:970
32.0344,1.9058,-21.8399,2017-03-21 18:10:03:979
8.3414,6.608,-0.5507,2017-03-21 18:10:03:990
8.3414,6.608,-0.5507,2017-03-21 18:10:03:999
4.3239,8.0589,8.0685,2017-03-21 18:10:04:009
4.3239,8.0589,8.0685,2017-03-21 18:10:04:019
6.948,4.0606,2.9161,2017-03-21 18:10:04:030
6.948,4.0606,2.9161,2017-03-21 18:10:04:039
1.6903,2.6815,1.154,2017-03-21 18:10:04:049
1.6903,2.6815,1.154,2017-03-21 18:10:04:061
-0.9385,1.312,3.5386,2017-03-21 18:10:04:070
-0.9385,1.312,3.5386,2017-03-21 18:10:04:080
1.9393,7.3502,3.9121,2017-03-21 18:10:04:089
1.9393,7.3502,3.9121,2017-03-21 18:10:04:099
15.1649,23.7505,-10.094,2017-03-21 18:10:04:109
26.5709,32.0344,-14.5567,2017-03-21 18:10:04:120
26.5709,32.0344,-14.5567,2017-03-21 18:10:04:129
36.1046,46.8593,21.6819,2017-03-21 18:10:04:139
36.1046,46.8593,21.6819,2017-03-21 18:10:04:150
18.7945,35.9561,20.7482,2017-03-21 18:10:04:159
18.7945,35.9561,20.7482,2017-03-21 18:10:04:171
17.0132,17.3819,-0.1772,2017-03-21 18:10:04:179
17.0132,17.3819,-0.1772,2017-03-21 18:10:04:189
-7.9248,8.3079,-58.0642,2017-03-21 18:10:04:199
-7.9248,8.3079,-58.0642,2017-03-21 18:10:04:209
-7.0725,3.1939,1.1157,2017-03-21 18:10:04:219
-7.0725,3.1939,1.1157,2017-03-21 18:10:04:230
-3.7876,1.6903,8.26,2017-03-21 18:10:04:240
-3.3279,0.8667,7.6519,2017-03-21 18:10:04:249
-3.3279,0.8667,7.6519,2017-03-21 18:10:04:259
-3.0311,-1.9872,5.8371,2017-03-21 18:10:04:269
-3.7924,-3.486,4.2952,2017-03-21 18:10:04:279
-3.7924,-3.486,4.2952,2017-03-21 18:10:04:289
-8.825,-6.2824,8.1451,2017-03-21 18:10:04:299
