ACCELEROMETER X (m/s²),ACCELEROMETER Y (m/s²),ACCELEROMETER Z (m/s²),YYYY-MO-DD HH-MI-SS_SSS
5.5881,0.8475,-2.1596,2017-03-20 18:48:58:989
5.7269,-0.7566,-6.0621,2017-03-20 18:48:58:999
2.9736,-1.3264,-6.2393,2017-03-20 18:48:59:009
2.9736,-1.3264,-6.2393,2017-03-20 18:48:59:019
1.1492,-1.7334,-2.3511,2017-03-20 18:48:59:029
1.1492,-1.7334,-2.3511,2017-03-20 18:48:59:038
1.2689,-1.8004,-0.1197,2017-03-20 18:48:59:049
1.2689,-1.8004,-0.1197,2017-03-20 18:48:59:059
2.0973,-2.4325,0.8045,2017-03-20 18:48:59:069
3.7541,-2.2314,2.7198,2017-03-20 18:48:59:078
3.7541,-2.2314,2.7198,2017-03-20 18:48:59:089
4.0462,-1.0439,4.4676,2017-03-20 18:48:59:099
4.0462,-1.0439,4.4676,2017-03-20 18:48:59:109
4.0414,3.5913,7.8721,2017-03-20 18:48:59:119
-1.8675,23.0131,8.3653,2017-03-20 18:48:59:129
-1.8675,23.0131,8.3653,2017-03-20 18:48:59:139
-2.9353,42.0709,4.1468,2017-03-20 18:48:59:148
-2.9353,42.0709,4.1468,2017-03-20 18:48:59:159
6.292,61.9428,12.3349,2017-03-20 18:48:59:169
6.292,61.9428,12.3349,2017-03-20 18:48:59:179
27.5621,41.6735,22.223,2017-03-20 18:48:59:189
22.041,29.6546,13.6517,2017-03-20 18:48:59:198
22.041,29.6546,13.6517,2017-03-20 18:48:59:208
14.6238,18.105,-6.6607,2017-03-20 18:48:59:219
14.6238,18.105,-6.6607,2017-03-20 18:48:59:229
-11.3629,-8.4036,-80.6463,2017-03-20 18:48:59:239
0.6895,0.3783,33.2028,2017-03-20 18:48:59:249
0.6895,0.3783,33.2028,2017-03-20 18:48:59:258
-10.2663,6.79,-2.1213,2017-03-20 18:48:59:268
-10.2663,6.79,-2.1213,2017-03-20 18:48:59:278
-6.0238,2.6193,1.9537,2017-03-20 18:48:59:288
-4.5155,0.4788,2.1117,2017-03-20 18:48:59:298
-4.5155,0.4788,2.1117,2017-03-20 18:48:59:310
-1.968,-2.3463,1.6807,2017-03-20 18:48:59:318
-1.968,-2.3463,1.6807,2017-03-20 18:48:59:328
-1.3455,-3.1939,2.1596,2017-03-20 18:48:59:338
-1.3455,-3.1939,2.1596,2017-03-20 18:48:59:348
-1.7765,-3.5578,2.3367,2017-03-20 18:48:59:358
-1.1875,-3.5051,1.9632,2017-03-20 18:48:59:369
-1.1875,-3.5051,1.9632,2017-03-20 18:48:59:379
-2.1739,-2.2697,0.6847,2017-03-20 18:48:59:389
-2.1739,-2.2697,0.6847,2017-03-20 18:48:59:399
-2.9592,-1.8292,-0.2155,2017-03-20 18:48:59:409
-4.4963,-0.6273,0.1772,2017-03-20 18:48:59:418
-4.4963,-0.6273,0.1772,2017-03-20 18:48:59:429
-6.1962,1.063,0.9146,2017-03-20 18:48:59:438
-6.1962,1.063,0.9146,2017-03-20 18:48:59:448
-9.7013,2.1404,2.1261,2017-03-20 18:48:59:458
-7.0054,2.5474,0.8619,2017-03-20 18:48:59:469
-7.0054,2.5474,0.8619,2017-03-20 18:48:59:479
-7.9918,11.6981,2.1548,2017-03-20 18:48:59:489
-7.9918,11.6981,2.1548,2017-03-20 18:48:59:498
-10.1131,21.1456,2.3846,2017-03-20 18:48:59:508
-4.5203,35.822,6.6367,2017-03-20 18:48:59:532
-4.5203,35.822,6.6367,2017-03-20 18:48:59:533
6.7277,37.5938,6.7612,2017-03-20 18:48:59:538
6.7277,37.5938,6.7612,2017-03-20 18:48:59:548
40.7828,32.2499,17.4537,2017-03-20 18:48:59:559
40.7828,32.2499,17.4537,2017-03-20 18:48:59:569
15.1074,26.4655,17.2383,2017-03-20 18:48:59:579
2.4852,24.4975,1.0534,2017-03-20 18:48:59:589
2.4852,24.4975,1.0534,2017-03-20 18:48:59:599
3.8068,21.8064,-4.8794,2017-03-20 18:48:59:609
3.8068,21.8064,-4.8794,2017-03-20 18:48:59:619
-6.1339,-4.7357,-78.4149,2017-03-20 18:48:59:629
0.2586,-11.4347,-77.8977,2017-03-20 18:48:59:638
0.2586,-11.4347,-77.8977,2017-03-20 18:48:59:649
9.9407,10.2328,1.9872,2017-03-20 18:48:59:659
9.9407,10.2328,1.9872,2017-03-20 18:48:59:668
11.9997,8.8011,5.1284,2017-03-20 18:48:59:679
7.9057,5.8323,4.1276,2017-03-20 18:48:59:688
7.9057,5.8323,4.1276,2017-03-20 18:48:59:699
6.5314,4.6064,1.6999,2017-03-20 18:48:59:708
6.5314,4.6064,1.6999,2017-03-20 18:48:59:721
6.5314,4.6064,1.6999,2017-03-20 18:48:59:729
6.5314,4.6064,1.6999,2017-03-20 18:48:59:738
6.5314,4.6064,1.6999,2017-03-20 18:48:59:748
6.5314,4.6064,1.6999,2017-03-20 18:48:59:759
6.5314,4.6064,1.6999,2017-03-20 18:48:59:769
6.5314,4.6064,1.6999,2017-03-20 18:48:59:779
6.1387,0.8475,-8.9016,2017-03-20 18:48:59:789
6.1387,0.8475,-8.9016,2017-03-20 18:48:59:799
6.1387,0.8475,-8.9016,2017-03-20 18:48:59:809
1.6185,-2.897,3.9361,2017-03-20 18:48:59:819
1.6185,-2.897,3.9361,2017-03-20 18:48:59:829
1.6185,-2.897,3.9361,2017-03-20 18:48:59:838
-1.0822,1.3982,5.6982,2017-03-20 18:48:59:848
-1.0822,1.3982,5.6982,2017-03-20 18:48:59:858
-6.0717,17.7554,4.209,2017-03-20 18:48:59:868
-6.0717,17.7554,4.209,2017-03-20 18:48:59:878
-6.0717,17.7554,4.209,2017-03-20 18:48:59:889
13.0005,66.0321,8.6287,2017-03-20 18:48:59:899
13.0005,66.0321,8.6287,2017-03-20 18:48:59:909
13.0005,66.0321,8.6287,2017-03-20 18:48:59:918
45.4036,43.517,12.0045,2017-03-20 18:48:59:929
45.4036,43.517,12.0045,2017-03-20 18:48:59:938
-1.063,11.88,-28.1893,2017-03-20 18:48:59:949
-1.063,11.88,-28.1893,2017-03-20 18:48:59:959
-1.063,11.88,-28.1893,2017-03-20 18:48:59:969
-10.9319,-10.0317,-16.8264,2017-03-20 18:48:59:979
-10.9319,-10.0317,-16.8264,2017-03-20 18:48:59:989
-11.7795,2.1356,4.4819,2017-03-20 18:48:59:999
-11.7795,2.1356,4.4819,2017-03-20 18:49:00:009
-11.7795,2.1356,4.4819,2017-03-20 18:49:00:019
-6.7373,1.5227,-2.0207,2017-03-20 18:49:00:030
-6.7373,1.5227,-2.0207,2017-03-20 18:49:00:039
-6.7373,1.5227,-2.0207,2017-03-20 18:49:00:049
-1.5754,-2.4852,-1.1396,2017-03-20 18:49:00:058
-0.5602,-3.3327,-2.2697,2017-03-20 18:49:00:069
-0.5602,-3.3327,-2.2697,2017-03-20 18:49:00:078
-0.5602,-3.3327,-2.2697,2017-03-20 18:49:00:089
-0.4262,-3.0981,-1.4413,2017-03-20 18:49:00:099
-0.4262,-3.0981,-1.4413,2017-03-20 18:49:00:109
-0.2969,-3.395,0.6752,2017-03-20 18:49:00:119
-0.2969,-3.395,0.6752,2017-03-20 18:49:00:128
-2.8539,-1.1827,-0.6752,2017-03-20 18:49:00:139
-2.8539,-1.1827,-0.6752,2017-03-20 18:49:00:149
-2.8539,-1.1827,-0.6752,2017-03-20 18:49:00:158
-3.893,0.6752,-0.1963,2017-03-20 18:49:00:169
-3.893,0.6752,-0.1963,2017-03-20 18:49:00:179
-4.7118,1.4078,-0.3687,2017-03-20 18:49:00:188
-4.7118,1.4078,-0.3687,2017-03-20 18:49:00:198
-11.0995,7.9583,-1.1684,2017-03-20 18:49:00:208
-11.0995,7.9583,-1.1684,2017-03-20 18:49:00:218
-13.0628,28.7544,0.8332,2017-03-20 18:49:00:229
-13.0628,28.7544,0.8332,2017-03-20 18:49:00:239
-5.4636,35.9657,6.1962,2017-03-20 18:49:00:249
-5.4636,35.9657,6.1962,2017-03-20 18:49:00:259
11.5017,36.5595,10.3908,2017-03-20 18:49:00:269
11.5017,36.5595,10.3908,2017-03-20 18:49:00:279
20.3651,31.2683,18.105,2017-03-20 18:49:00:288
20.3651,31.2683,18.105,2017-03-20 18:49:00:298
9.347,24.9141,11.8657,2017-03-20 18:49:00:308
9.347,24.9141,11.8657,2017-03-20 18:49:00:318
2.6001,19.9724,-0.4693,2017-03-20 18:49:00:328
2.6001,19.9724,-0.4693,2017-03-20 18:49:00:338
2.6001,19.9724,-0.4693,2017-03-20 18:49:00:349
3.9169,17.4106,-3.7589,2017-03-20 18:49:00:358
3.9169,17.4106,-3.7589,2017-03-20 18:49:00:368
-0.3687,-7.2544,-26.5517,2017-03-20 18:49:00:379
-0.3687,-7.2544,-26.5517,2017-03-20 18:49:00:389
11.6119,8.5521,-14.7196,2017-03-20 18:49:00:399
10.7883,8.6335,8.0445,2017-03-20 18:49:00:408
10.7883,8.6335,8.0445,2017-03-20 18:49:00:418
8.2696,7.0868,5.8562,2017-03-20 18:49:00:429
8.2696,7.0868,5.8562,2017-03-20 18:49:00:439
4.2856,3.9456,1.0295,2017-03-20 18:49:00:449
4.2856,3.9456,1.0295,2017-03-20 18:49:00:459
3.4093,2.0303,-1.6903,2017-03-20 18:49:00:470
3.4093,2.0303,-1.6903,2017-03-20 18:49:00:479
3.3615,1.3647,-1.9872,2017-03-20 18:49:00:489
3.3615,1.3647,-1.9872,2017-03-20 18:49:00:498
5.2385,-5.0661,-6.9575,2017-03-20 18:49:00:508
5.2385,-5.0661,-6.9575,2017-03-20 18:49:00:519
1.6041,-1.6664,3.9409,2017-03-20 18:49:00:528
1.6041,-1.6664,3.9409,2017-03-20 18:49:00:539
3.2274,-2.9928,6.2153,2017-03-20 18:49:00:548
3.2274,-2.9928,6.2153,2017-03-20 18:49:00:559
-1.0391,0.6225,7.2927,2017-03-20 18:49:00:569
-1.0391,0.6225,7.2927,2017-03-20 18:49:00:584
-4.7309,5.6551,6.5505,2017-03-20 18:49:00:588
-4.7309,5.6551,6.5505,2017-03-20 18:49:00:603
-4.7309,5.6551,6.5505,2017-03-20 18:49:00:608
-8.576,34.6824,-4.4149,2017-03-20 18:49:00:618
-8.576,34.6824,-4.4149,2017-03-20 18:49:00:628
-4.027,66.7647,13.2351,2017-03-20 18:49:00:638
-4.027,66.7647,13.2351,2017-03-20 18:49:00:649
15.7108,32.8006,7.4891,2017-03-20 18:49:00:659
15.7108,32.8006,7.4891,2017-03-20 18:49:00:669
5.114,15.4282,-11.3054,2017-03-20 18:49:00:679
5.114,15.4282,-11.3054,2017-03-20 18:49:00:689
-21.6723,2.1165,-107.7965,2017-03-20 18:49:00:698
-21.6723,2.1165,-107.7965,2017-03-20 18:49:00:709
-6.7564,-1.5514,11.971,2017-03-20 18:49:00:719
-6.7564,-1.5514,11.971,2017-03-20 18:49:00:728
-10.1035,-0.6847,-2.4038,2017-03-20 18:49:00:738
-10.1035,-0.6847,-2.4038,2017-03-20 18:49:00:749
-7.8769,-0.3591,-2.0782,2017-03-20 18:49:00:759
-7.8769,-0.3591,-2.0782,2017-03-20 18:49:00:769
-7.8769,-0.3591,-2.0782,2017-03-20 18:49:00:778
-0.9098,-3.2465,-6.359,2017-03-20 18:49:00:788
-0.9098,-3.2465,-6.359,2017-03-20 18:49:00:799
0.2203,-3.462,-9.232,2017-03-20 18:49:00:809
0.2203,-3.462,-9.232,2017-03-20 18:49:00:820
1.3072,-3.711,1.2498,2017-03-20 18:49:00:829
1.3072,-3.711,1.2498,2017-03-20 18:49:00:838
0.1724,-3.6344,1.47,2017-03-20 18:49:00:849
0.1724,-3.6344,1.47,2017-03-20 18:49:00:858
0.1724,-3.6344,1.47,2017-03-20 18:49:00:869
-3.1699,-0.5938,0.6608,2017-03-20 18:49:00:878
-3.1699,-0.5938,0.6608,2017-03-20 18:49:00:888
-4.8363,0.5507,1.2737,2017-03-20 18:49:00:898
-4.8363,0.5507,1.2737,2017-03-20 18:49:00:908
-6.1962,2.059,0.6273,2017-03-20 18:49:00:918
-6.1962,2.059,0.6273,2017-03-20 18:49:00:928
-10.6925,4.0845,0.2921,2017-03-20 18:49:00:939
-10.6925,4.0845,0.2921,2017-03-20 18:49:00:948
-17.7554,11.8992,-3.7206,2017-03-20 18:49:00:958
-17.7554,11.8992,-3.7206,2017-03-20 18:49:00:969
-12.6893,23.4105,0.0431,2017-03-20 18:49:00:979
-12.6893,23.4105,0.0431,2017-03-20 18:49:00:990
8.5234,32.3217,8.3462,2017-03-20 18:49:00:998
8.5234,32.3217,8.3462,2017-03-20 18:49:01:010
47.1323,28.6777,15.3612,2017-03-20 18:49:01:018
47.1323,28.6777,15.3612,2017-03-20 18:49:01:028
18.1959,22.7066,4.8842,2017-03-20 18:49:01:040
18.1959,22.7066,4.8842,2017-03-20 18:49:01:049
18.1959,22.7066,4.8842,2017-03-20 18:49:01:058
-5.8179,24.2676,2.0446,2017-03-20 18:49:01:068
-5.8179,24.2676,2.0446,2017-03-20 18:49:01:079
-3.0598,19.7905,2.241,2017-03-20 18:49:01:088
-3.0598,19.7905,2.241,2017-03-20 18:49:01:099
-1.087,8.6431,-13.2399,2017-03-20 18:49:01:108
-1.087,8.6431,-13.2399,2017-03-20 18:49:01:119
10.1993,2.2936,-12.378,2017-03-20 18:49:01:129
10.1993,2.2936,-12.378,2017-03-20 18:49:01:138
20.6907,5.0901,-19.9006,2017-03-20 18:49:01:149
20.6907,5.0901,-19.9006,2017-03-20 18:49:01:159
3.5482,8.6095,9.2368,2017-03-20 18:49:01:169
3.5482,8.6095,9.2368,2017-03-20 18:49:01:178
1.7765,5.9616,4.5586,2017-03-20 18:49:01:189
1.7765,5.9616,4.5586,2017-03-20 18:49:01:202
1.0343,3.4668,1.6807,2017-03-20 18:49:01:210
1.0343,3.4668,1.6807,2017-03-20 18:49:01:219
0.5171,1.585,0.3687,2017-03-20 18:49:01:228
0.5171,1.585,0.3687,2017-03-20 18:49:01:238
-0.0527,0.6464,-0.4693,2017-03-20 18:49:01:249
-0.0527,0.6464,-0.4693,2017-03-20 18:49:01:259
-0.0527,0.6464,-0.4693,2017-03-20 18:49:01:269
0.747,-1.6328,-0.067,2017-03-20 18:49:01:279
0.747,-1.6328,-0.067,2017-03-20 18:49:01:289
1.6041,-1.7621,2.3607,2017-03-20 18:49:01:299
1.6041,-1.7621,2.3607,2017-03-20 18:49:01:308
1.5036,2.2841,2.9736,2017-03-20 18:49:01:319
1.5036,2.2841,2.9736,2017-03-20 18:49:01:329
6.4548,24.8231,-7.0629,2017-03-20 18:49:01:339
6.4548,24.8231,-7.0629,2017-03-20 18:49:01:349
13.8193,59.9317,-1.8483,2017-03-20 18:49:01:359
13.8193,59.9317,-1.8483,2017-03-20 18:49:01:368
14.0683,60.717,26.159,2017-03-20 18:49:01:378
14.0683,60.717,26.159,2017-03-20 18:49:01:388
9.663,27.9164,23.8558,2017-03-20 18:49:01:399
9.663,27.9164,23.8558,2017-03-20 18:49:01:409
-1.4078,-0.2203,-14.8632,2017-03-20 18:49:01:420
-1.4078,-0.2203,-14.8632,2017-03-20 18:49:01:428
1.0439,1.1732,8.3749,2017-03-20 18:49:01:438
1.0439,1.1732,8.3749,2017-03-20 18:49:01:449
-4.4819,2.1165,0.8236,2017-03-20 18:49:01:459
-3.8451,1.5131,4.0079,2017-03-20 18:49:01:468
-3.8451,1.5131,4.0079,2017-03-20 18:49:01:478
-3.8451,1.5131,4.0079,2017-03-20 18:49:01:488
-2.624,-1.7478,3.9887,2017-03-20 18:49:01:498
-2.624,-1.7478,3.9887,2017-03-20 18:49:01:508
-1.5658,-3.7876,3.2561,2017-03-20 18:49:01:518
-1.5658,-3.7876,3.2561,2017-03-20 18:49:01:528
-1.5227,-4.3958,2.988,2017-03-20 18:49:01:539
-1.5227,-4.3958,2.988,2017-03-20 18:49:01:548
-1.7238,-4.391,1.5945,2017-03-20 18:49:01:558
-1.7238,-4.391,1.5945,2017-03-20 18:49:01:568
-3.0406,-3.8211,1.4317,2017-03-20 18:49:01:578
-3.0406,-3.8211,1.4317,2017-03-20 18:49:01:588
-4.118,-3.4285,0.0431,2017-03-20 18:49:01:599
-5.43,-1.6328,-2.4469,2017-03-20 18:49:01:608
-5.9041,-0.5938,-3.3519,2017-03-20 18:49:01:619
-5.9041,-0.5938,-3.3519,2017-03-20 18:49:01:628
-9.4619,1.4126,-11.224,2017-03-20 18:49:01:638
-9.4619,1.4126,-11.224,2017-03-20 18:49:01:649
-9.347,1.7334,-9.1506,2017-03-20 18:49:01:658
-9.347,1.7334,-9.1506,2017-03-20 18:49:01:668
-10.1993,0.9577,-1.1971,2017-03-20 18:49:01:678
-10.1993,0.9577,-1.1971,2017-03-20 18:49:01:689
-7.4843,2.557,0.3879,2017-03-20 18:49:01:700
-7.4843,2.557,0.3879,2017-03-20 18:49:01:708
-6.3782,16.8935,6.6702,2017-03-20 18:49:01:719
-6.3782,16.8935,6.6702,2017-03-20 18:49:01:729
-6.3782,16.8935,6.6702,2017-03-20 18:49:01:738
17.2239,37.6369,15.4953,2017-03-20 18:49:01:749
18.5407,36.0615,19.6133,2017-03-20 18:49:01:758
18.5407,36.0615,19.6133,2017-03-20 18:49:01:768
5.4013,36.2195,11.6885,2017-03-20 18:49:01:778
5.4013,36.2195,11.6885,2017-03-20 18:49:01:788
0.0718,35.6784,6.9192,2017-03-20 18:49:01:799
2.8443,26.4655,-0.7374,2017-03-20 18:49:01:809
2.8443,26.4655,-0.7374,2017-03-20 18:49:01:819
2.8443,26.4655,-0.7374,2017-03-20 18:49:01:829
10.5153,1.8675,-102.4335,2017-03-20 18:49:01:839
5.8466,-6.8139,-33.3991,2017-03-20 18:49:01:849
5.8466,-6.8139,-33.3991,2017-03-20 18:49:01:858
-5.023,-0.68,88.3796,2017-03-20 18:49:01:868
-5.023,-0.68,88.3796,2017-03-20 18:49:01:878
15.3804,6.0669,-16.3811,2017-03-20 18:49:01:888
12.4929,8.7724,6.4117,2017-03-20 18:49:01:898
12.4929,8.7724,6.4117,2017-03-20 18:49:01:908
8.3079,6.3446,3.2465,2017-03-20 18:49:01:918
8.3079,6.3446,3.2465,2017-03-20 18:49:01:928
4.458,4.549,-0.1006,2017-03-20 18:49:01:939
3.9409,3.2657,-1.0247,2017-03-20 18:49:01:949
3.9409,3.2657,-1.0247,2017-03-20 18:49:01:958
6.8139,0.0958,-12.4307,2017-03-20 18:49:01:968
6.8139,0.0958,-12.4307,2017-03-20 18:49:01:979
3.0981,-2.0063,-7.0342,2017-03-20 18:49:01:988
2.739,-3.0837,-1.4605,2017-03-20 18:49:01:998
2.739,-3.0837,-1.4605,2017-03-20 18:49:02:009
2.466,-1.3838,5.7748,2017-03-20 18:49:02:018
2.466,-1.3838,5.7748,2017-03-20 18:49:02:028
0.0958,0.4118,8.8202,2017-03-20 18:49:02:039
-1.4892,2.8683,10.8745,2017-03-20 18:49:02:048
-1.4892,2.8683,10.8745,2017-03-20 18:49:02:058
-7.7476,10.2663,9.098,2017-03-20 18:49:02:068
-7.7476,10.2663,9.098,2017-03-20 18:49:02:078
-13.125,39.9113,-3.7972,2017-03-20 18:49:02:088
-13.125,39.9113,-3.7972,2017-03-20 18:49:02:098
-13.8864,52.5048,-2.1787,2017-03-20 18:49:02:108
5.5067,50.8528,9.3901,2017-03-20 18:49:02:118
5.5067,50.8528,9.3901,2017-03-20 18:49:02:129
23.8798,29.3577,9.2177,2017-03-20 18:49:02:139
23.8798,29.3577,9.2177,2017-03-20 18:49:02:149
16.1034,22.8934,2.4469,2017-03-20 18:49:02:159
-4.8459,11.248,-51.5472,2017-03-20 18:49:02:169
-4.8459,11.248,-51.5472,2017-03-20 18:49:02:179
-5.1427,0.8428,30.732,2017-03-20 18:49:02:188
-5.1427,0.8428,30.732,2017-03-20 18:49:02:198
-10.1514,0.9242,23.1567,2017-03-20 18:49:02:208
-10.161,3.1125,-1.3168,2017-03-20 18:49:02:218
-10.161,3.1125,-1.3168,2017-03-20 18:49:02:229
-5.2864,-1.0247,-2.217,2017-03-20 18:49:02:238
-5.2864,-1.0247,-2.217,2017-03-20 18:49:02:248
-3.4141,-2.2458,0.3112,2017-03-20 18:49:02:258
-3.4141,-2.2458,0.3112,2017-03-20 18:49:02:268
-2.3798,-4.1851,-2.1261,2017-03-20 18:49:02:278
-1.3551,-4.1228,-1.6424,2017-03-20 18:49:02:289
-1.3551,-4.1228,-1.6424,2017-03-20 18:49:02:298
-1.3024,-3.62,-0.7374,2017-03-20 18:49:02:308
-1.3024,-3.62,-0.7374,2017-03-20 18:49:02:318
-1.6424,-4.0749,0.0048,2017-03-20 18:49:02:329
-2.7007,-3.7302,-0.5219,2017-03-20 18:49:02:339
-2.7007,-3.7302,-0.5219,2017-03-20 18:49:02:348
-3.0885,-2.1308,-0.5507,2017-03-20 18:49:02:359
-3.0885,-2.1308,-0.5507,2017-03-20 18:49:02:368
-3.0742,-0.4693,-1.221,2017-03-20 18:49:02:378
-3.8786,0.9337,-1.8771,2017-03-20 18:49:02:388
-3.8786,0.9337,-1.8771,2017-03-20 18:49:02:399
-4.7022,1.6999,-1.9201,2017-03-20 18:49:02:409
-4.7022,1.6999,-1.9201,2017-03-20 18:49:02:419
-9.9072,4.2569,-0.249,2017-03-20 18:49:02:429
-9.9072,4.2569,-0.249,2017-03-20 18:49:02:439
-14.279,19.484,-1.3838,2017-03-20 18:49:02:449
-11.6933,33.9546,5.9089,2017-03-20 18:49:02:459
-11.6933,33.9546,5.9089,2017-03-20 18:49:02:469
0.6847,38.3599,9.2512,2017-03-20 18:49:02:479
0.6847,38.3599,9.2512,2017-03-20 18:49:02:488
18.4689,35.6497,12.4834,2017-03-20 18:49:02:498
22.1464,27.8446,10.477,2017-03-20 18:49:02:509
22.1464,27.8446,10.477,2017-03-20 18:49:02:519
4.0127,26.2692,10.8266,2017-03-20 18:49:02:529
4.0127,26.2692,10.8266,2017-03-20 18:49:02:539
-0.0958,24.7225,4.2569,2017-03-20 18:49:02:549
2.7916,19.6037,-0.6321,2017-03-20 18:49:02:559
2.7916,19.6037,-0.6321,2017-03-20 18:49:02:569
2.7916,19.6037,-0.6321,2017-03-20 18:49:02:578
-9.3374,3.1173,-99.1966,2017-03-20 18:49:02:588
-3.7158,-5.8371,-32.2212,2017-03-20 18:49:02:599
-3.7158,-5.8371,-32.2212,2017-03-20 18:49:02:609
8.9304,7.6902,-4.6974,2017-03-20 18:49:02:618
8.9304,7.6902,-4.6974,2017-03-20 18:49:02:629
15.4282,5.5689,-16.836,2017-03-20 18:49:02:639
6.5218,8.4515,7.0294,2017-03-20 18:49:02:649
6.5218,8.4515,7.0294,2017-03-20 18:49:02:659
4.3191,7.0581,4.1994,2017-03-20 18:49:02:669
4.3191,7.0581,4.1994,2017-03-20 18:49:02:679
1.9297,4.2282,0.8906,2017-03-20 18:49:02:689
1.9297,4.2282,0.8906,2017-03-20 18:49:02:699
3.0167,1.7238,-0.6177,2017-03-20 18:49:02:709
3.0167,1.7238,-0.6177,2017-03-20 18:49:02:719
3.0167,1.7238,-0.6177,2017-03-20 18:49:02:729
3.0167,1.7238,-0.6177,2017-03-20 18:49:02:739
3.0167,1.7238,-0.6177,2017-03-20 18:49:02:749
2.9209,0.9481,-1.0199,2017-03-20 18:49:02:759
2.9209,0.9481,-1.0199,2017-03-20 18:49:02:768
3.2944,-2.8299,1.1013,2017-03-20 18:49:02:779
2.6432,-2.083,3.6966,2017-03-20 18:49:02:789
2.0542,0.1245,4.6926,2017-03-20 18:49:02:799
2.0542,0.1245,4.6926,2017-03-20 18:49:02:808
1.9441,12.0237,-0.2729,2017-03-20 18:49:02:819
1.9441,12.0237,-0.2729,2017-03-20 18:49:02:829
1.5658,49.8233,-21.1025,2017-03-20 18:49:02:838
1.5658,49.8233,-21.1025,2017-03-20 18:49:02:849
17.6596,62.5892,16.1752,2017-03-20 18:49:02:858
23.1902,56.3978,23.8798,2017-03-20 18:49:02:868
23.1902,56.3978,23.8798,2017-03-20 18:49:02:879
8.8777,27.5525,7.9871,2017-03-20 18:49:02:888
8.8777,27.5525,7.9871,2017-03-20 18:49:02:899
-2.0877,13.4123,-30.1574,2017-03-20 18:49:02:908
-2.0877,13.4123,-30.1574,2017-03-20 18:49:02:918
-0.6273,3.8164,0.7853,2017-03-20 18:49:02:928
-0.6273,3.8164,0.7853,2017-03-20 18:49:02:938
-7.0294,5.0661,2.9353,2017-03-20 18:49:02:949
-7.0294,5.0661,2.9353,2017-03-20 18:49:02:959
-5.6216,2.8252,0.4836,2017-03-20 18:49:02:969
-5.6216,2.8252,0.4836,2017-03-20 18:49:02:978
-2.3224,-0.4836,1.5802,2017-03-20 18:49:02:989
-2.3224,-0.4836,1.5802,2017-03-20 18:49:02:999
-1.3216,-1.8818,1.1875,2017-03-20 18:49:03:009
-0.7326,-3.4046,0.7039,2017-03-20 18:49:03:020
-0.7326,-3.4046,0.7039,2017-03-20 18:49:03:028
-0.7997,-3.7014,0.7709,2017-03-20 18:49:03:039
-0.7997,-3.7014,0.7709,2017-03-20 18:49:03:048
-0.4214,-3.9792,2.1452,2017-03-20 18:49:03:058
-0.4214,-3.9792,2.1452,2017-03-20 18:49:03:069
-0.7039,-4.1132,2.9544,2017-03-20 18:49:03:079
-0.7039,-4.1132,2.9544,2017-03-20 18:49:03:089
-2.6671,-2.4373,0.2682,2017-03-20 18:49:03:099
-2.6671,-2.4373,0.2682,2017-03-20 18:49:03:109
-3.4237,-1.5323,-1.7669,2017-03-20 18:49:03:119
-5.3103,-0.0766,-0.498,2017-03-20 18:49:03:128
-5.3103,-0.0766,-0.498,2017-03-20 18:49:03:139
-5.3103,-0.0766,-0.498,2017-03-20 18:49:03:149
-8.8394,0.929,-0.7757,2017-03-20 18:49:03:160
-8.8394,0.929,-0.7757,2017-03-20 18:49:03:168
-9.7971,1.7286,-1.3551,2017-03-20 18:49:03:179
-6.9528,1.5754,-1.8914,2017-03-20 18:49:03:188
-6.9528,1.5754,-1.8914,2017-03-20 18:49:03:199
-6.8714,3.9935,-2.4229,2017-03-20 18:49:03:209
-6.8714,3.9935,-2.4229,2017-03-20 18:49:03:219
-6.8714,3.9935,-2.4229,2017-03-20 18:49:03:230
-7.6902,7.3885,-0.5938,2017-03-20 18:49:03:239
-7.6902,7.3885,-0.5938,2017-03-20 18:49:03:262
-7.6902,7.3885,-0.5938,2017-03-20 18:49:03:263
7.0294,40.2944,16.9605,2017-03-20 18:49:03:269
7.0294,40.2944,16.9605,2017-03-20 18:49:03:279
20.0395,39.6911,30.1478,2017-03-20 18:49:03:288
-1.7957,37.7949,2.4612,2017-03-20 18:49:03:299
-1.7957,37.7949,2.4612,2017-03-20 18:49:03:308
-1.7957,37.7949,2.4612,2017-03-20 18:49:03:318
0.6608,24.9476,-6.7086,2017-03-20 18:49:03:328
0.6608,24.9476,-6.7086,2017-03-20 18:49:03:339
-4.1851,-12.3062,-57.8535,2017-03-20 18:49:03:349
-4.1851,-12.3062,-57.8535,2017-03-20 18:49:03:359
15.0021,9.4236,-17.4825,2017-03-20 18:49:03:369
15.0021,9.4236,-17.4825,2017-03-20 18:49:03:378
14.8153,10.4196,2.7246,2017-03-20 18:49:03:388
14.8153,10.4196,2.7246,2017-03-20 18:49:03:398
2.4948,8.8585,8.4132,2017-03-20 18:49:03:409
2.4948,8.8585,8.4132,2017-03-20 18:49:03:418
1.1732,4.1946,3.1699,2017-03-20 18:49:03:428
1.1732,4.1946,3.1699,2017-03-20 18:49:03:439
1.1588,0.9385,0.6608,2017-03-20 18:49:03:448
1.1588,0.9385,0.6608,2017-03-20 18:49:03:458
0.3543,-0.6704,-0.4453,2017-03-20 18:49:03:468
0.3543,-0.6704,-0.4453,2017-03-20 18:49:03:478
-0.091,-2.399,-1.7142,2017-03-20 18:49:03:489
-0.091,-2.399,-1.7142,2017-03-20 18:49:03:499
0.929,-3.0119,-0.2873,2017-03-20 18:49:03:509
1.9297,-3.4716,1.0008,2017-03-20 18:49:03:519
1.9297,-3.4716,1.0008,2017-03-20 18:49:03:528
3.4524,-2.4995,2.5187,2017-03-20 18:49:03:538
3.4524,-2.4995,2.5187,2017-03-20 18:49:03:549
3.5147,3.055,2.715,2017-03-20 18:49:03:558
3.5147,3.055,2.715,2017-03-20 18:49:03:568
5.6503,18.354,-9.4619,2017-03-20 18:49:03:578
5.6503,18.354,-9.4619,2017-03-20 18:49:03:588
7.7572,51.868,-5.3199,2017-03-20 18:49:03:599
7.7572,51.868,-5.3199,2017-03-20 18:49:03:608
37.1197,61.5741,25.8622,2017-03-20 18:49:03:618
37.4405,43.3877,24.033,2017-03-20 18:49:03:630
37.4405,43.3877,24.033,2017-03-20 18:49:03:638
18.7179,20.2406,-21.9213,2017-03-20 18:49:03:648
18.7179,20.2406,-21.9213,2017-03-20 18:49:03:658
-0.6321,1.4078,20.3842,2017-03-20 18:49:03:668
-0.6321,1.4078,20.3842,2017-03-20 18:49:03:679
-5.1475,2.557,0.2107,2017-03-20 18:49:03:689
-5.1475,2.557,0.2107,2017-03-20 18:49:03:699
-5.0757,5.3391,5.8227,2017-03-20 18:49:03:710
-5.0757,5.3391,5.8227,2017-03-20 18:49:03:719
-3.4333,1.0822,4.9847,2017-03-20 18:49:03:728
-3.4333,1.0822,4.9847,2017-03-20 18:49:03:738
-2.5905,-2.0399,4.051,2017-03-20 18:49:03:749
-2.5905,-2.0399,4.051,2017-03-20 18:49:03:759
-1.8771,-4.4628,1.4605,2017-03-20 18:49:03:769
-1.8771,-4.4628,1.4605,2017-03-20 18:49:03:779
-1.7478,-5.8227,1.743,2017-03-20 18:49:03:789
-1.7478,-5.8227,1.743,2017-03-20 18:49:03:800
-3.6583,-7.2257,5.3295,2017-03-20 18:49:03:809
-3.6583,-7.2257,5.3295,2017-03-20 18:49:03:818
-6.9719,-2.9257,3.9361,2017-03-20 18:49:03:829
-6.9719,-2.9257,3.9361,2017-03-20 18:49:03:838
-6.0956,-1.6951,1.3838,2017-03-20 18:49:03:848
-3.122,-0.5507,-1.3791,2017-03-20 18:49:03:858
-3.122,-0.5507,-1.3791,2017-03-20 18:49:03:868
-4.9464,0.656,-3.1364,2017-03-20 18:49:03:878
-4.9464,0.656,-3.1364,2017-03-20 18:49:03:889
-7.1108,1.743,-4.4532,2017-03-20 18:49:03:899
-7.1108,1.743,-4.4532,2017-03-20 18:49:03:910
-14.9973,11.157,-6.9432,2017-03-20 18:49:03:919
-14.9973,11.157,-6.9432,2017-03-20 18:49:03:928
-13.7427,13.8624,-7.4651,2017-03-20 18:49:03:938
-13.7427,13.8624,-7.4651,2017-03-20 18:49:03:948
-11.789,26.4368,-3.1077,2017-03-20 18:49:03:958
-11.789,26.4368,-3.1077,2017-03-20 18:49:03:968
7.5753,31.6226,6.5841,2017-03-20 18:49:03:978
7.5753,31.6226,6.5841,2017-03-20 18:49:03:989
52.433,26.1064,21.7441,2017-03-20 18:49:03:998
31.7184,20.3076,21.6053,2017-03-20 18:49:04:009
31.7184,20.3076,21.6053,2017-03-20 18:49:04:018
-0.1341,30.1669,20.2789,2017-03-20 18:49:04:028
-0.1341,30.1669,20.2789,2017-03-20 18:49:04:039
0.8763,30.4112,4.4053,2017-03-20 18:49:04:049
0.8763,30.4112,4.4053,2017-03-20 18:49:04:059
15.4761,22.5103,-11.133,2017-03-20 18:49:04:069
18.33,-0.5124,-105.7471,2017-03-20 18:49:04:080
18.33,-0.5124,-105.7471,2017-03-20 18:49:04:088
18.33,-0.5124,-105.7471,2017-03-20 18:49:04:098
2.083,-7.3694,-26.2644,2017-03-20 18:49:04:108
2.083,-7.3694,-26.2644,2017-03-20 18:49:04:119
19.7091,7.5274,-4.3958,2017-03-20 18:49:04:129
19.7091,7.5274,-4.3958,2017-03-20 18:49:04:138
19.7091,7.5274,-4.3958,2017-03-20 18:49:04:149
19.7091,7.5274,-4.3958,2017-03-20 18:49:04:158
19.7091,7.5274,-4.3958,2017-03-20 18:49:04:168
19.7091,7.5274,-4.3958,2017-03-20 18:49:04:179
19.7091,7.5274,-4.3958,2017-03-20 18:49:04:189
19.7091,7.5274,-4.3958,2017-03-20 18:49:04:199
19.7091,7.5274,-4.3958,2017-03-20 18:49:04:210
19.7091,7.5274,-4.3958,2017-03-20 18:49:04:218
19.7091,7.5274,-4.3958,2017-03-20 18:49:04:228
19.7091,7.5274,-4.3958,2017-03-20 18:49:04:239
19.7091,7.5274,-4.3958,2017-03-20 18:49:04:249
19.7091,7.5274,-4.3958,2017-03-20 18:49:04:258
19.7091,7.5274,-4.3958,2017-03-20 18:49:04:268
19.7091,7.5274,-4.3958,2017-03-20 18:49:04:279
19.7091,7.5274,-4.3958,2017-03-20 18:49:04:288
19.7091,7.5274,-4.3958,2017-03-20 18:49:04:300
19.7091,7.5274,-4.3958,2017-03-20 18:49:04:308
19.7091,7.5274,-4.3958,2017-03-20 18:49:04:318
19.7091,7.5274,-4.3958,2017-03-20 18:49:04:328
19.7091,7.5274,-4.3958,2017-03-20 18:49:04:338
19.7091,7.5274,-4.3958,2017-03-20 18:49:04:348
19.7091,7.5274,-4.3958,2017-03-20 18:49:04:359
19.7091,7.5274,-4.3958,2017-03-20 18:49:04:368
19.7091,7.5274,-4.3958,2017-03-20 18:49:04:378
19.7091,7.5274,-4.3958,2017-03-20 18:49:04:388
19.7091,7.5274,-4.3958,2017-03-20 18:49:04:398
19.7091,7.5274,-4.3958,2017-03-20 18:49:04:409
19.7091,7.5274,-4.3958,2017-03-20 18:49:04:419
19.7091,7.5274,-4.3958,2017-03-20 18:49:04:429
13.3453,3.6727,-3.5195,2017-03-20 18:49:04:439
13.3453,3.6727,-3.5195,2017-03-20 18:49:04:448
13.3453,3.6727,-3.5195,2017-03-20 18:49:04:458
13.3453,3.6727,-3.5195,2017-03-20 18:49:04:468
-8.4851,8.193,-92.8807,2017-03-20 18:49:04:479
-8.4851,8.193,-92.8807,2017-03-20 18:49:04:488
-8.4851,8.193,-92.8807,2017-03-20 18:49:04:501
-5.0901,-0.4788,0.7422,2017-03-20 18:49:04:508
-5.0901,-0.4788,0.7422,2017-03-20 18:49:04:526
-5.0901,-0.4788,0.7422,2017-03-20 18:49:04:528
-5.0901,-0.4788,0.7422,2017-03-20 18:49:04:538
-5.0901,-0.4788,0.7422,2017-03-20 18:49:04:548
-5.0901,-0.4788,0.7422,2017-03-20 18:49:04:559
-5.0901,-0.4788,0.7422,2017-03-20 18:49:04:569
-2.1548,-3.1987,4.0941,2017-03-20 18:49:04:579
-2.1548,-3.1987,4.0941,2017-03-20 18:49:04:589
-2.4565,-2.3367,1.0726,2017-03-20 18:49:04:599
-2.4565,-2.3367,1.0726,2017-03-20 18:49:04:608
-1.8052,-0.8811,-1.0295,2017-03-20 18:49:04:618
-1.8052,-0.8811,-1.0295,2017-03-20 18:49:04:628
-7.8003,1.6664,-9.7061,2017-03-20 18:49:04:638
-9.6247,2.8778,-8.3606,2017-03-20 18:49:04:648
-9.6247,2.8778,-8.3606,2017-03-20 18:49:04:658
-13.3118,8.7915,-5.0661,2017-03-20 18:49:04:669
-13.3118,8.7915,-5.0661,2017-03-20 18:49:04:678
-15.0739,20.887,-4.2377,2017-03-20 18:49:04:688
-11.133,26.8486,0.1245,2017-03-20 18:49:04:699
-11.133,26.8486,0.1245,2017-03-20 18:49:04:708
24.8518,33.4231,12.2583,2017-03-20 18:49:04:718
46.9982,31.9865,18.0283,2017-03-20 18:49:04:728
46.9982,31.9865,18.0283,2017-03-20 18:49:04:738
18.7274,24.2628,14.9063,2017-03-20 18:49:04:748
18.7274,24.2628,14.9063,2017-03-20 18:49:04:759
1.992,26.3219,8.4276,2017-03-20 18:49:04:769
-7.58,28.3713,6.7469,2017-03-20 18:49:04:779
-1.834,24.7704,5.2146,2017-03-20 18:49:04:789
-1.834,24.7704,5.2146,2017-03-20 18:49:04:799
8.9112,16.8743,-1.3695,2017-03-20 18:49:04:809
8.9112,16.8743,-1.3695,2017-03-20 18:49:04:819
15.591,2.9784,-62.7137,2017-03-20 18:49:04:829
4.7645,-9.6486,-49.8185,2017-03-20 18:49:04:839
4.7645,-9.6486,-49.8185,2017-03-20 18:49:04:848
15.682,7.9296,-5.8706,2017-03-20 18:49:04:858
15.682,7.9296,-5.8706,2017-03-20 18:49:04:868
10.6398,8.7628,10.5441,2017-03-20 18:49:04:879
10.6398,8.7628,10.5441,2017-03-20 18:49:04:889
5.7652,3.7158,3.3758,2017-03-20 18:49:04:899
5.7652,3.7158,3.3758,2017-03-20 18:49:04:909
4.5346,0.4405,-2.7007,2017-03-20 18:49:04:918
4.5346,0.4405,-2.7007,2017-03-20 18:49:04:928
4.7357,-2.4277,-9.7779,2017-03-20 18:49:04:938
4.7357,-2.4277,-9.7779,2017-03-20 18:49:04:948
2.1356,-1.8723,-2.2553,2017-03-20 18:49:04:958
2.1356,-1.8723,-2.2553,2017-03-20 18:49:04:968
0.7949,-1.5562,0.5986,2017-03-20 18:49:04:978
0.7949,-1.5562,0.5986,2017-03-20 18:49:04:989
1.7047,-2.7102,2.083,2017-03-20 18:49:04:999
1.7047,-2.7102,2.083,2017-03-20 18:49:05:009
3.2178,-1.4748,8.1116,2017-03-20 18:49:05:019
3.2178,-1.4748,8.1116,2017-03-20 18:49:05:028
1.5419,4.616,10.75,2017-03-20 18:49:05:039
1.5419,4.616,10.75,2017-03-20 18:49:05:049
-7.695,16.678,8.2504,2017-03-20 18:49:05:059
-7.695,16.678,8.2504,2017-03-20 18:49:05:068
-7.695,16.678,8.2504,2017-03-20 18:49:05:078
-2.5426,42.5162,0.0814,2017-03-20 18:49:05:088
14.777,53.6253,6.5505,2017-03-20 18:49:05:099
14.777,53.6253,6.5505,2017-03-20 18:49:05:109
32.9777,46.8785,16.3332,2017-03-20 18:49:05:118
32.9777,46.8785,16.3332,2017-03-20 18:49:05:129
19.9581,31.5747,9.0836,2017-03-20 18:49:05:139
19.9581,31.5747,9.0836,2017-03-20 18:49:05:149
3.7014,20.2933,-27.6147,2017-03-20 18:49:05:159
3.7014,20.2933,-27.6147,2017-03-20 18:49:05:168
-2.4517,-4.2042,33.9929,2017-03-20 18:49:05:178
-2.4517,-4.2042,33.9929,2017-03-20 18:49:05:189
-13.7619,7.2161,-9.1602,2017-03-20 18:49:05:199
-13.7619,7.2161,-9.1602,2017-03-20 18:49:05:209
-6.5936,3.122,-0.9098,2017-03-20 18:49:05:218
-4.2569,1.0104,2.1835,2017-03-20 18:49:05:228
-4.2569,1.0104,2.1835,2017-03-20 18:49:05:239
-1.0678,-2.4756,0.7949,2017-03-20 18:49:05:249
-1.0678,-2.4756,0.7949,2017-03-20 18:49:05:259
-0.4884,-3.4429,1.3838,2017-03-20 18:49:05:268
-0.4884,-3.4429,1.3838,2017-03-20 18:49:05:279
-1.4557,-4.3574,1.4365,2017-03-20 18:49:05:288
-1.4557,-4.3574,1.4365,2017-03-20 18:49:05:298
-1.6807,-3.5913,1.3551,2017-03-20 18:49:05:308
-1.6807,-3.5913,1.3551,2017-03-20 18:49:05:318
-2.3607,-2.1739,0.5267,2017-03-20 18:49:05:329
-2.3607,-2.1739,0.5267,2017-03-20 18:49:05:339
-3.3615,-1.4174,-0.0144,2017-03-20 18:49:05:349
-3.3615,-1.4174,-0.0144,2017-03-20 18:49:05:359
-5.8562,0.4645,0.972,2017-03-20 18:49:05:369
-5.8562,0.4645,0.972,2017-03-20 18:49:05:378
-9.7396,2.7007,1.6041,2017-03-20 18:49:05:388
-9.7396,2.7007,1.6041,2017-03-20 18:49:05:399
-4.6783,3.1029,-0.2059,2017-03-20 18:49:05:409
-4.6783,3.1029,-0.2059,2017-03-20 18:49:05:418
-9.6343,18.2151,3.0502,2017-03-20 18:49:05:428
-9.6343,18.2151,3.0502,2017-03-20 18:49:05:439
-10.3621,38.8962,7.5465,2017-03-20 18:49:05:449
-10.3621,38.8962,7.5465,2017-03-20 18:49:05:459
-10.3621,38.8962,7.5465,2017-03-20 18:49:05:468
-10.3621,38.8962,7.5465,2017-03-20 18:49:05:478
-10.3621,38.8962,7.5465,2017-03-20 18:49:05:489
-10.3621,38.8962,7.5465,2017-03-20 18:49:05:498
-10.3621,38.8962,7.5465,2017-03-20 18:49:05:508
-10.3621,38.8962,7.5465,2017-03-20 18:49:05:519
-10.3621,38.8962,7.5465,2017-03-20 18:49:05:528
-10.3621,38.8962,7.5465,2017-03-20 18:49:05:539
-1.0295,41.7932,8.4132,2017-03-20 18:49:05:548
-1.0295,41.7932,8.4132,2017-03-20 18:49:05:558
-0.3543,-5.9328,-42.6072,2017-03-20 18:49:05:568
-0.3543,-5.9328,-42.6072,2017-03-20 18:49:05:578
1.9154,-9.1554,-44.106,2017-03-20 18:49:05:588
1.9154,-9.1554,-44.106,2017-03-20 18:49:05:598
10.6111,8.1211,4.8171,2017-03-20 18:49:05:608
10.6111,8.1211,4.8171,2017-03-20 18:49:05:618
6.0861,5.0996,3.5243,2017-03-20 18:49:05:628
6.0861,5.0996,3.5243,2017-03-20 18:49:05:639
3.5099,2.5666,-0.838,2017-03-20 18:49:05:649
3.5099,2.5666,-0.838,2017-03-20 18:49:05:659
4.5729,-0.3208,-9.6103,2017-03-20 18:49:05:669
4.5729,-0.3208,-9.6103,2017-03-20 18:49:05:679
2.1069,-1.5897,-4.5346,2017-03-20 18:49:05:689
2.1069,-1.5897,-4.5346,2017-03-20 18:49:05:699
2.1069,-1.5897,-4.5346,2017-03-20 18:49:05:708
0.6512,-1.2594,-0.2777,2017-03-20 18:49:05:719
0.6512,-1.2594,-0.2777,2017-03-20 18:49:05:729
2.6815,-3.0215,1.4796,2017-03-20 18:49:05:739
2.6815,-3.0215,1.4796,2017-03-20 18:49:05:749
3.5291,-2.7007,4.956,2017-03-20 18:49:05:758
3.5291,-2.7007,4.956,2017-03-20 18:49:05:770
3.3088,2.7725,7.7428,2017-03-20 18:49:05:778
1.1636,7.0964,9.4954,2017-03-20 18:49:05:788
1.1636,7.0964,9.4954,2017-03-20 18:49:05:798
1.2881,30.8948,2.0111,2017-03-20 18:49:05:808
1.2881,30.8948,2.0111,2017-03-20 18:49:05:818
11.248,57.5039,6.7038,2017-03-20 18:49:05:828
30.6985,47.4579,19.4553,2017-03-20 18:49:05:838
30.6985,47.4579,19.4553,2017-03-20 18:49:05:848
30.6985,47.4579,19.4553,2017-03-20 18:49:05:858
24.8135,33.854,13.5416,2017-03-20 18:49:05:869
10.2137,18.4354,-4.7836,2017-03-20 18:49:05:878
10.2137,18.4354,-4.7836,2017-03-20 18:49:05:889
-4.6926,-10.5584,-46.912,2017-03-20 18:49:05:898
-4.6926,-10.5584,-46.912,2017-03-20 18:49:05:909
-9.1075,2.9592,16.1896,2017-03-20 18:49:05:918
-9.1075,2.9592,16.1896,2017-03-20 18:49:05:929
-9.3901,3.0071,3.3519,2017-03-20 18:49:05:938
-9.3901,3.0071,3.3519,2017-03-20 18:49:05:950
-6.3734,0.7566,-1.7047,2017-03-20 18:49:05:958
-6.3734,0.7566,-1.7047,2017-03-20 18:49:05:968
-3.0598,-2.1835,-2.2458,2017-03-20 18:49:05:978
-3.0598,-2.1835,-2.2458,2017-03-20 18:49:05:988
-1.4365,-2.9592,-2.7485,2017-03-20 18:49:05:999
-1.1684,-2.6145,-1.4796,2017-03-20 18:49:06:008
-1.1684,-2.6145,-1.4796,2017-03-20 18:49:06:019
-1.0678,-2.873,0.9242,2017-03-20 18:49:06:029
-1.0678,-2.873,0.9242,2017-03-20 18:49:06:038
-1.3982,-3.3806,2.3176,2017-03-20 18:49:06:049
-2.2027,-2.8156,1.9297,2017-03-20 18:49:06:059
-2.2027,-2.8156,1.9297,2017-03-20 18:49:06:069
-2.5857,-1.6807,-1.1971,2017-03-20 18:49:06:079
-2.5857,-1.6807,-1.1971,2017-03-20 18:49:06:088
-3.9504,-0.0144,-1.494,2017-03-20 18:49:06:098
-3.9504,-0.0144,-1.494,2017-03-20 18:49:06:108
-3.9504,-0.0144,-1.494,2017-03-20 18:49:06:118
-6.9001,2.6863,-3.553,2017-03-20 18:49:06:129
-6.9001,2.6863,-3.553,2017-03-20 18:49:06:138
-14.844,11.0277,-6.7229,2017-03-20 18:49:06:149
-14.844,11.0277,-6.7229,2017-03-20 18:49:06:158
-17.3915,22.7258,-4.3574,2017-03-20 18:49:06:169
-17.3915,22.7258,-4.3574,2017-03-20 18:49:06:178
-3.2561,34.103,6.3015,2017-03-20 18:49:06:188
34.4478,34.1174,21.701,2017-03-20 18:49:06:198
34.4478,34.1174,21.701,2017-03-20 18:49:06:208
46.6391,28.9028,21.385,2017-03-20 18:49:06:219
46.6391,28.9028,21.385,2017-03-20 18:49:06:229
14.461,26.2644,14.6094,2017-03-20 18:49:06:238
-1.0151,25.4791,2.5283,2017-03-20 18:49:06:249
-1.0151,25.4791,2.5283,2017-03-20 18:49:06:258
-1.0151,25.4791,2.5283,2017-03-20 18:49:06:268
3.7302,18.8615,-2.6528,2017-03-20 18:49:06:278
3.7302,18.8615,-2.6528,2017-03-20 18:49:06:288
-9.2129,-2.1739,-83.5768,2017-03-20 18:49:06:299
-9.2129,-2.1739,-83.5768,2017-03-20 18:49:06:309
-8.4228,0.7039,106.767,2017-03-20 18:49:06:319
13.2639,8.3031,-11.8992,2017-03-20 18:49:06:329
13.2639,8.3031,-11.8992,2017-03-20 18:49:06:339
11.497,9.5624,7.8865,2017-03-20 18:49:06:349
11.497,9.5624,7.8865,2017-03-20 18:49:06:358
6.0334,5.4875,4.1132,2017-03-20 18:49:06:368
6.0334,5.4875,4.1132,2017-03-20 18:49:06:378
3.9361,2.4277,-1.1013,2017-03-20 18:49:06:389
3.9361,2.4277,-1.1013,2017-03-20 18:49:06:399
4.4293,-1.2115,-11.8896,2017-03-20 18:49:06:409
4.4293,-1.2115,-11.8896,2017-03-20 18:49:06:418
1.81,-1.5419,-4.6304,2017-03-20 18:49:06:429
0.8906,-1.0295,-0.6847,2017-03-20 18:49:06:439
0.8906,-1.0295,-0.6847,2017-03-20 18:49:06:448
0.4788,-1.1444,1.0774,2017-03-20 18:49:06:458
0.4788,-1.1444,1.0774,2017-03-20 18:49:06:469
1.1875,-1.1588,4.4819,2017-03-20 18:49:06:479
1.1875,-1.1588,4.4819,2017-03-20 18:49:06:488
2.2458,2.715,8.6048,2017-03-20 18:49:06:499
0.2586,5.7988,9.6247,2017-03-20 18:49:06:508
0.2586,5.7988,9.6247,2017-03-20 18:49:06:519
-3.1651,27.1359,1.2689,2017-03-20 18:49:06:529
-3.1651,27.1359,1.2689,2017-03-20 18:49:06:538
-0.7039,53.4338,6.9336,2017-03-20 18:49:06:548
-0.7039,53.4338,6.9336,2017-03-20 18:49:06:559
23.4632,50.556,24.3969,2017-03-20 18:49:06:569
23.4632,50.556,24.3969,2017-03-20 18:49:06:578
22.9269,27.6961,5.9233,2017-03-20 18:49:06:589
22.9269,27.6961,5.9233,2017-03-20 18:49:06:599
-0.5124,10.7787,-73.4685,2017-03-20 18:49:06:609
-0.5124,10.7787,-73.4685,2017-03-20 18:49:06:619
-3.9744,-3.6679,15.2175,2017-03-20 18:49:06:629
-3.9744,-3.6679,15.2175,2017-03-20 18:49:06:639
-10.1179,2.9449,9.3518,2017-03-20 18:49:06:648
-10.1179,2.9449,9.3518,2017-03-20 18:49:06:658
-10.999,3.6871,6.5936,2017-03-20 18:49:06:668
-6.7612,0.6943,1.3743,2017-03-20 18:49:06:679
-6.7612,0.6943,1.3743,2017-03-20 18:49:06:689
-5.296,-1.5897,1.1396,2017-03-20 18:49:06:700
-2.7916,-3.8116,0.0766,2017-03-20 18:49:06:708
-2.7916,-3.8116,0.0766,2017-03-20 18:49:06:719
-2.3032,-3.8786,-2.9161,2017-03-20 18:49:06:728
-2.3032,-3.8786,-2.9161,2017-03-20 18:49:06:740
-1.6472,-3.5769,-1.2354,2017-03-20 18:49:06:748
-1.7717,-3.8116,-0.6895,2017-03-20 18:49:06:758
-1.7717,-3.8116,-0.6895,2017-03-20 18:49:06:768
-3.3136,-3.1556,0.7709,2017-03-20 18:49:06:778
-3.2705,-2.0016,-0.2777,2017-03-20 18:49:06:788
-3.2705,-2.0016,-0.2777,2017-03-20 18:49:06:798
-3.2705,-2.0016,-0.2777,2017-03-20 18:49:06:808
-3.6248,-0.8475,-1.9489,2017-03-20 18:49:06:818
-6.1579,1.1636,-0.2251,2017-03-20 18:49:06:829
-6.1579,1.1636,-0.2251,2017-03-20 18:49:06:838
-6.4117,3.1603,-2.4229,2017-03-20 18:49:06:848
-6.4117,3.1603,-2.4229,2017-03-20 18:49:06:858
-6.4117,3.1603,-2.4229,2017-03-20 18:49:06:868
-11.8226,11.4251,0.565,2017-03-20 18:49:06:880
-11.8226,11.4251,0.565,2017-03-20 18:49:06:888
-12.2583,26.0681,4.5059,2017-03-20 18:49:06:899
-11.8705,32.7479,6.8857,2017-03-20 18:49:06:909
-11.8705,32.7479,6.8857,2017-03-20 18:49:06:919
5.6599,34.7399,9.0022,2017-03-20 18:49:06:928
5.6599,34.7399,9.0022,2017-03-20 18:49:06:939
44.0581,30.9858,15.3804,2017-03-20 18:49:06:949
44.0581,30.9858,15.3804,2017-03-20 18:49:06:959
18.9621,24.9284,14.8967,2017-03-20 18:49:06:970
8.9639,24.1719,8.5856,2017-03-20 18:49:06:978
8.9639,24.1719,8.5856,2017-03-20 18:49:06:990
2.2027,22.4385,-3.3232,2017-03-20 18:49:06:998
2.2027,22.4385,-3.3232,2017-03-20 18:49:07:009
2.3559,2.3415,-75.1684,2017-03-20 18:49:07:018
2.3559,2.3415,-75.1684,2017-03-20 18:49:07:028
-2.0399,-9.0453,-17.358,2017-03-20 18:49:07:038
-2.0399,-9.0453,-17.358,2017-03-20 18:49:07:048
8.7963,6.2728,-9.6726,2017-03-20 18:49:07:058
8.7963,6.2728,-9.6726,2017-03-20 18:49:07:068
13.6661,8.7963,6.0525,2017-03-20 18:49:07:078
12.6366,6.1292,4.9943,2017-03-20 18:49:07:089
12.6366,6.1292,4.9943,2017-03-20 18:49:07:100
5.0949,3.4907,-0.3065,2017-03-20 18:49:07:108
5.0949,3.4907,-0.3065,2017-03-20 18:49:07:118
5.3917,0.0239,-8.5281,2017-03-20 18:49:07:128
5.3917,0.0239,-8.5281,2017-03-20 18:49:07:138
3.4668,-1.4461,-5.4253,2017-03-20 18:49:07:148
3.4668,-1.4461,-5.4253,2017-03-20 18:49:07:158
1.2498,-2.2027,-2.0494,2017-03-20 18:49:07:168
1.2498,-2.2027,-2.0494,2017-03-20 18:49:07:178
3.6871,-5.3678,1.8483,2017-03-20 18:49:07:188
3.6871,-5.3678,1.8483,2017-03-20 18:49:07:198
2.5905,-3.2801,5.023,2017-03-20 18:49:07:208
2.5905,-3.2801,5.023,2017-03-20 18:49:07:218
-0.5602,1.6951,8.1786,2017-03-20 18:49:07:229
-0.5602,1.6951,8.1786,2017-03-20 18:49:07:239
-5.1763,8.5712,8.5329,2017-03-20 18:49:07:249
-5.1763,8.5712,8.5329,2017-03-20 18:49:07:259
-7.3454,36.4206,-2.2889,2017-03-20 18:49:07:268
-7.3454,36.4206,-2.2889,2017-03-20 18:49:07:279
4.7501,62.9867,2.0782,2017-03-20 18:49:07:288
4.7501,62.9867,2.0782,2017-03-20 18:49:07:299
4.7501,62.9867,2.0782,2017-03-20 18:49:07:308
33.0735,49.1099,20.8679,2017-03-20 18:49:07:319
33.0735,49.1099,20.8679,2017-03-20 18:49:07:329
9.8881,25.6611,7.9057,2017-03-20 18:49:07:338
-0.3065,12.5983,-82.0684,2017-03-20 18:49:07:348
-0.3065,12.5983,-82.0684,2017-03-20 18:49:07:360
-3.6488,2.5426,21.3419,2017-03-20 18:49:07:369
-3.6488,2.5426,21.3419,2017-03-20 18:49:07:379
-16.1465,2.7485,-3.6823,2017-03-20 18:49:07:389
-16.1465,2.7485,-3.6823,2017-03-20 18:49:07:398
-8.1977,2.3798,-5.0422,2017-03-20 18:49:07:408
-8.1977,2.3798,-5.0422,2017-03-20 18:49:07:418
-5.1811,0.2729,-2.3224,2017-03-20 18:49:07:429
-5.1811,0.2729,-2.3224,2017-03-20 18:49:07:439
-0.7087,-3.7158,-1.2306,2017-03-20 18:49:07:448
0.3591,-4.9943,-2.7916,2017-03-20 18:49:07:458
0.3591,-4.9943,-2.7916,2017-03-20 18:49:07:469
1.3168,-4.5586,0.5842,2017-03-20 18:49:07:479
1.3168,-4.5586,0.5842,2017-03-20 18:49:07:488
0.4549,-4.6208,2.0686,2017-03-20 18:49:07:499
0.4549,-4.6208,2.0686,2017-03-20 18:49:07:509
-1.5754,-4.9416,1.5036,2017-03-20 18:49:07:519
-1.5754,-4.9416,1.5036,2017-03-20 18:49:07:529
-3.2274,-1.0822,-0.1197,2017-03-20 18:49:07:538
-3.2274,-1.0822,-0.1197,2017-03-20 18:49:07:548
-4.2473,0.723,-0.8428,2017-03-20 18:49:07:559
-4.2473,0.723,-0.8428,2017-03-20 18:49:07:569
-5.8897,2.0734,-1.8866,2017-03-20 18:49:07:580
-5.8897,2.0734,-1.8866,2017-03-20 18:49:07:589
-12.6701,5.5498,-3.5147,2017-03-20 18:49:07:599
-19.5175,11.1474,-7.2401,2017-03-20 18:49:07:609
-19.5175,11.1474,-7.2401,2017-03-20 18:49:07:619
-19.2925,19.9389,-6.5553,2017-03-20 18:49:07:629
-19.2925,19.9389,-6.5553,2017-03-20 18:49:07:638
-11.8417,25.187,-1.6712,2017-03-20 18:49:07:648
-11.8417,25.187,-1.6712,2017-03-20 18:49:07:658
37.0718,28.4048,16.0603,2017-03-20 18:49:07:669
37.0718,28.4048,16.0603,2017-03-20 18:49:07:679
31.6705,17.8081,15.2559,2017-03-20 18:49:07:688
31.6705,17.8081,15.2559,2017-03-20 18:49:07:698
0.1341,27.2364,13.963,2017-03-20 18:49:07:708
0.1341,27.2364,13.963,2017-03-20 18:49:07:718
-3.7254,28.1558,5.0087,2017-03-20 18:49:07:728
-3.7254,28.1558,5.0087,2017-03-20 18:49:07:739
7.331,19.1105,-0.2729,2017-03-20 18:49:07:749
7.331,19.1105,-0.2729,2017-03-20 18:49:07:758
2.4325,4.4245,-103.056,2017-03-20 18:49:07:769
2.4325,4.4245,-103.056,2017-03-20 18:49:07:779
0.7949,12.062,11.7412,2017-03-20 18:49:07:790
0.7949,12.062,11.7412,2017-03-20 18:49:07:798
16.1226,8.2313,-1.0151,2017-03-20 18:49:07:808
11.7316,7.4029,5.0949,2017-03-20 18:49:07:818
11.7316,7.4029,5.0949,2017-03-20 18:49:07:829
5.4013,4.7788,1.0199,2017-03-20 18:49:07:840
5.4013,4.7788,1.0199,2017-03-20 18:49:07:848
4.1468,2.332,-2.1644,2017-03-20 18:49:07:858
4.1468,2.332,-2.1644,2017-03-20 18:49:07:868
4.3814,0.1867,-3.7972,2017-03-20 18:49:07:879
4.3814,0.1867,-3.7972,2017-03-20 18:49:07:888
3.1651,-1.2594,-3.4285,2017-03-20 18:49:07:898
3.1651,-1.2594,-3.4285,2017-03-20 18:49:07:908
2.6863,-1.5275,-0.0575,2017-03-20 18:49:07:919
2.6863,-1.5275,-0.0575,2017-03-20 18:49:07:929
5.047,-3.8738,0.9194,2017-03-20 18:49:07:939
5.047,-3.8738,0.9194,2017-03-20 18:49:07:949
1.6376,-0.5459,3.4381,2017-03-20 18:49:07:959
1.6376,-0.5459,3.4381,2017-03-20 18:49:07:969
-1.4078,5.3726,6.3159,2017-03-20 18:49:07:978
-1.4078,5.3726,6.3159,2017-03-20 18:49:07:990
-1.4078,5.3726,6.3159,2017-03-20 18:49:07:998
-3.7733,21.3371,5.0326,2017-03-20 18:49:08:009
-4.0989,36.4398,3.4189,2017-03-20 18:49:08:018
-4.0989,36.4398,3.4189,2017-03-20 18:49:08:028
-7.7093,57.5183,17.176,2017-03-20 18:49:08:039
-7.7093,57.5183,17.176,2017-03-20 18:49:08:048
6.3494,41.9847,26.681,2017-03-20 18:49:08:059
20.1592,22.7832,10.252,2017-03-20 18:49:08:069
20.1592,22.7832,10.252,2017-03-20 18:49:08:079
20.1592,22.7832,10.252,2017-03-20 18:49:08:088
6.4739,8.4755,-88.3413,2017-03-20 18:49:08:100
-2.1548,-11.1091,-49.8473,2017-03-20 18:49:08:108
-2.1548,-11.1091,-49.8473,2017-03-20 18:49:08:119
-11.5879,1.5083,21.1647,2017-03-20 18:49:08:128
-11.5879,1.5083,21.1647,2017-03-20 18:49:08:138
-11.3342,1.8914,-2.4277,2017-03-20 18:49:08:148
-11.3342,1.8914,-2.4277,2017-03-20 18:49:08:158
-6.5841,-0.6033,-5.7604,2017-03-20 18:49:08:169
-6.5841,-0.6033,-5.7604,2017-03-20 18:49:08:179
-0.5219,-4.6256,-4.4197,2017-03-20 18:49:08:188
-0.5219,-4.6256,-4.4197,2017-03-20 18:49:08:198
-1.1732,-5.4827,-5.0805,2017-03-20 18:49:08:209
-1.1732,-5.4827,-5.0805,2017-03-20 18:49:08:219
-2.2984,-4.2234,-1.9489,2017-03-20 18:49:08:228
-2.2984,-4.2234,-1.9489,2017-03-20 18:49:08:238
-1.8148,-3.5482,2.624,2017-03-20 18:49:08:248
-1.8148,-3.5482,2.624,2017-03-20 18:49:08:258
-1.8148,-3.5482,2.624,2017-03-20 18:49:08:269
-3.4381,-2.3942,0.972,2017-03-20 18:49:08:279
-4.7884,1.2354,0.316,2017-03-20 18:49:08:288
-4.7884,1.2354,0.316,2017-03-20 18:49:08:299
-5.0613,2.3463,0.5555,2017-03-20 18:49:08:309
-5.0613,2.3463,0.5555,2017-03-20 18:49:08:319
-11.3725,6.3446,2.9018,2017-03-20 18:49:08:329
-13.5129,8.8442,3.4572,2017-03-20 18:49:08:340
-13.5129,8.8442,3.4572,2017-03-20 18:49:08:348
-16.6253,21.6388,6.0094,2017-03-20 18:49:08:359
-16.6253,21.6388,6.0094,2017-03-20 18:49:08:369
-0.0766,33.8923,9.73,2017-03-20 18:49:08:379
-0.0766,33.8923,9.73,2017-03-20 18:49:08:389
26.6858,32.1781,6.6128,2017-03-20 18:49:08:401
26.6858,32.1781,6.6128,2017-03-20 18:49:08:409
35.1804,30.2052,5.6024,2017-03-20 18:49:08:418
13.9678,25.1008,-2.0734,2017-03-20 18:49:08:429
5.545,23.5973,0.8092,2017-03-20 18:49:08:438
5.545,23.5973,0.8092,2017-03-20 18:49:08:449
-0.7805,18.2151,1.312,2017-03-20 18:49:08:459
-0.7805,18.2151,1.312,2017-03-20 18:49:08:469
3.4668,12.3445,1.6616,2017-03-20 18:49:08:478
3.4668,12.3445,1.6616,2017-03-20 18:49:08:488
3.4668,8.2983,-2.7821,2017-03-20 18:49:08:499
3.4668,8.2983,-2.7821,2017-03-20 18:49:08:509
3.4668,8.2983,-2.7821,2017-03-20 18:49:08:519
-0.3304,-10.5153,-63.6091,2017-03-20 18:49:08:529
18.2151,6.9719,-17.358,2017-03-20 18:49:08:538
18.2151,6.9719,-17.358,2017-03-20 18:49:08:549
16.8456,7.2736,-0.3735,2017-03-20 18:49:08:559
16.8456,7.2736,-0.3735,2017-03-20 18:49:08:569
5.1954,7.0437,5.8754,2017-03-20 18:49:08:579
2.2122,4.0989,0.814,2017-03-20 18:49:08:589
2.2122,4.0989,0.814,2017-03-20 18:49:08:600
1.8627,2.2745,-1.5658,2017-03-20 18:49:08:609
1.8627,2.2745,-1.5658,2017-03-20 18:49:08:619
1.5419,1.5227,-2.332,2017-03-20 18:49:08:629
1.5419,1.5227,-2.332,2017-03-20 18:49:08:638
6.9623,-6.1148,-7.015,2017-03-20 18:49:08:649
6.9623,-6.1148,-7.015,2017-03-20 18:49:08:658
0.1772,-0.7278,0.0287,2017-03-20 18:49:08:669
0.1772,-0.7278,0.0287,2017-03-20 18:49:08:678
0.4022,-0.4932,3.1412,2017-03-20 18:49:08:688
0.4022,-0.4932,3.1412,2017-03-20 18:49:08:699
0.4501,2.9401,5.2241,2017-03-20 18:49:08:708
0.4501,2.9401,5.2241,2017-03-20 18:49:08:719
-3.2178,14.0252,0.0958,2017-03-20 18:49:08:728
-3.2178,14.0252,0.0958,2017-03-20 18:49:08:738
-2.5762,52.026,-14.3939,2017-03-20 18:49:08:748
-2.5762,52.026,-14.3939,2017-03-20 18:49:08:758
17.6788,62.7041,27.5477,2017-03-20 18:49:08:769
30.1382,52.5288,28.7496,2017-03-20 18:49:08:779
30.1382,52.5288,28.7496,2017-03-20 18:49:08:788
10.7212,20.4992,-13.6278,2017-03-20 18:49:08:798
10.7212,20.4992,-13.6278,2017-03-20 18:49:08:809
2.6576,4.9847,-36.2003,2017-03-20 18:49:08:819
2.6576,4.9847,-36.2003,2017-03-20 18:49:08:829
-5.952,3.9552,-1.4413,2017-03-20 18:49:08:839
-5.952,3.9552,-1.4413,2017-03-20 18:49:08:849
-6.3063,5.023,2.0207,2017-03-20 18:49:08:858
-6.3063,5.023,2.0207,2017-03-20 18:49:08:869
-4.2138,2.059,4.8363,2017-03-20 18:49:08:879
-4.2138,2.059,4.8363,2017-03-20 18:49:08:889
-3.0023,-1.4605,5.9089,2017-03-20 18:49:08:898
-3.0023,-1.4605,5.9089,2017-03-20 18:49:08:908
-2.3128,-4.3622,3.7781,2017-03-20 18:49:08:919
-2.3128,-4.3622,3.7781,2017-03-20 18:49:08:929
-3.1843,-5.8897,0.8045,2017-03-20 18:49:08:938
-3.1843,-5.8897,0.8045,2017-03-20 18:49:08:948
-6.2824,-5.7317,-0.8619,2017-03-20 18:49:08:961
-6.2824,-5.7317,-0.8619,2017-03-20 18:49:08:969
-4.889,-3.6105,1.7334,2017-03-20 18:49:08:978
-4.6495,-2.7533,0.9577,2017-03-20 18:49:08:989
-4.6495,-2.7533,0.9577,2017-03-20 18:49:08:999
-2.9592,-1.8196,-1.7334,2017-03-20 18:49:09:009
-2.9592,-1.8196,-1.7334,2017-03-20 18:49:09:019
-2.9975,-1.0199,-2.3415,2017-03-20 18:49:09:030
-3.6679,-0.4022,-3.0742,2017-03-20 18:49:09:038
-3.6679,-0.4022,-3.0742,2017-03-20 18:49:09:048
-8.8202,1.8866,-4.1899,2017-03-20 18:49:09:058
-8.8202,1.8866,-4.1899,2017-03-20 18:49:09:069
-6.948,3.4907,-3.2848,2017-03-20 18:49:09:079
-6.948,3.4907,-3.2848,2017-03-20 18:49:09:088
-10.8793,18.7801,0.7853,2017-03-20 18:49:09:099
-11.5305,28.2324,4.2617,2017-03-20 18:49:09:108
-11.5305,28.2324,4.2617,2017-03-20 18:49:09:118
-2.9401,37.9194,11.5736,2017-03-20 18:49:09:129
-2.9401,37.9194,11.5736,2017-03-20 18:49:09:139
-2.9401,37.9194,11.5736,2017-03-20 18:49:09:149
38.4269,30.6075,16.2758,2017-03-20 18:49:09:159
38.4269,30.6075,16.2758,2017-03-20 18:49:09:168
22.8838,25.9531,25.1583,2017-03-20 18:49:09:179
0.0096,27.7775,11.2719,2017-03-20 18:49:09:189
0.0096,27.7775,11.2719,2017-03-20 18:49:09:198
0.0096,27.7775,11.2719,2017-03-20 18:49:09:208
1.7669,24.9715,-2.2984,2017-03-20 18:49:09:218
6.7804,20.9062,-8.5234,2017-03-20 18:49:09:228
6.7804,20.9062,-8.5234,2017-03-20 18:49:09:239
-0.34,-7.8003,-45.7197,2017-03-20 18:49:09:249
-0.34,-7.8003,-45.7197,2017-03-20 18:49:09:258
0.9912,14.0109,0.34,2017-03-20 18:49:09:268
0.9912,14.0109,0.34,2017-03-20 18:49:09:279
21.6963,6.5888,2.8252,2017-03-20 18:49:09:289
21.6963,6.5888,2.8252,2017-03-20 18:49:09:299
9.0214,5.4923,4.4197,2017-03-20 18:49:09:309
9.0214,5.4923,4.4197,2017-03-20 18:49:09:318
5.6551,1.7621,-0.2059,2017-03-20 18:49:09:328
5.6551,1.7621,-0.2059,2017-03-20 18:49:09:338
6.1627,-2.2697,-9.2225,2017-03-20 18:49:09:349
6.1627,-2.2697,-9.2225,2017-03-20 18:49:09:359
2.6815,-2.4469,-6.5841,2017-03-20 18:49:09:368
2.6815,-2.4469,-6.5841,2017-03-20 18:49:09:379
0.6225,-2.2889,0.6464,2017-03-20 18:49:09:389
0.6225,-2.2889,0.6464,2017-03-20 18:49:09:399
1.4892,-2.648,1.6568,2017-03-20 18:49:09:409
1.4892,-2.648,1.6568,2017-03-20 18:49:09:419
1.8866,-1.8771,3.9648,2017-03-20 18:49:09:429
1.8866,-1.8771,3.9648,2017-03-20 18:49:09:439
2.9449,0.1915,6.2441,2017-03-20 18:49:09:449
-1.3695,8.327,3.9935,2017-03-20 18:49:09:480
-1.3695,8.327,3.9935,2017-03-20 18:49:09:481
-1.3695,8.327,3.9935,2017-03-20 18:49:09:482
-6.2249,31.0241,1.1013,2017-03-20 18:49:09:488
2.9544,44.4412,-0.1101,2017-03-20 18:49:09:498
2.9544,44.4412,-0.1101,2017-03-20 18:49:09:508
35.0511,55.512,16.1226,2017-03-20 18:49:09:518
35.0511,55.512,16.1226,2017-03-20 18:49:09:529
28.9172,37.6369,13.7523,2017-03-20 18:49:09:539
28.9172,37.6369,13.7523,2017-03-20 18:49:09:548
8.7436,23.6499,-15.4139,2017-03-20 18:49:09:558
8.7436,23.6499,-15.4139,2017-03-20 18:49:09:569
-9.7396,-8.4611,-62.5988,2017-03-20 18:49:09:578
-9.7396,-8.4611,-62.5988,2017-03-20 18:49:09:589
-11.4395,3.1939,11.4682,2017-03-20 18:49:09:599
-12.4068,7.7045,-5.8035,2017-03-20 18:49:09:609
-12.4068,7.7045,-5.8035,2017-03-20 18:49:09:619
-6.6319,3.1939,-0.9577,2017-03-20 18:49:09:629
-6.6319,3.1939,-0.9577,2017-03-20 18:49:09:639
-2.1596,-0.838,0.7805,2017-03-20 18:49:09:648
-0.9194,-2.2553,0.091,2017-03-20 18:49:09:659
-0.9194,-2.2553,0.091,2017-03-20 18:49:09:669
-0.0814,-3.7302,1.9632,2017-03-20 18:49:09:678
-0.0814,-3.7302,1.9632,2017-03-20 18:49:09:689
-1.0726,-4.2282,4.0845,2017-03-20 18:49:09:698
-1.0726,-4.2282,4.0845,2017-03-20 18:49:09:709
-1.1732,-4.4197,2.6384,2017-03-20 18:49:09:719
-1.1732,-4.4197,2.6384,2017-03-20 18:49:09:728
-2.4469,-2.6193,-0.3017,2017-03-20 18:49:09:738
-2.4469,-2.6193,-0.3017,2017-03-20 18:49:09:749
-2.6432,-2.3894,-1.3791,2017-03-20 18:49:09:759
-2.6432,-2.3894,-1.3791,2017-03-20 18:49:09:769
-4.1515,-0.2634,-0.5028,2017-03-20 18:49:09:778
-4.1515,-0.2634,-0.5028,2017-03-20 18:49:09:789
-6.0621,1.4222,-1.245,2017-03-20 18:49:09:799
-6.0621,1.4222,-1.245,2017-03-20 18:49:09:808
-7.0581,2.3272,-1.6807,2017-03-20 18:49:09:818
-7.0581,2.3272,-1.6807,2017-03-20 18:49:09:829
-8.1977,8.825,-2.4229,2017-03-20 18:49:09:839
-8.1977,8.825,-2.4229,2017-03-20 18:49:09:849
-11.2049,24.1814,-0.3352,2017-03-20 18:49:09:860
-11.2049,24.1814,-0.3352,2017-03-20 18:49:09:869
-6.268,37.6512,5.3343,2017-03-20 18:49:09:879
-6.268,37.6512,5.3343,2017-03-20 18:49:09:889
39.8156,34.2467,21.883,2017-03-20 18:49:09:900
39.8156,34.2467,21.883,2017-03-20 18:49:09:909
21.7106,29.4678,26.3889,2017-03-20 18:49:09:919
21.7106,29.4678,26.3889,2017-03-20 18:49:09:929
-0.5842,28.8406,6.2393,2017-03-20 18:49:09:938
-0.5842,28.8406,6.2393,2017-03-20 18:49:09:949
3.9887,23.9372,-5.1092,2017-03-20 18:49:09:958
3.9887,23.9372,-5.1092,2017-03-20 18:49:09:969
-9.8114,-2.9257,-110.1333,2017-03-20 18:49:09:978
-9.8114,-2.9257,-110.1333,2017-03-20 18:49:09:989
-1.8052,15.4378,46.9407,2017-03-20 18:49:09:999
-1.8052,15.4378,46.9407,2017-03-20 18:49:10:009
21.5861,5.9999,-17.7219,2017-03-20 18:49:10:019
21.5861,5.9999,-17.7219,2017-03-20 18:49:10:029
7.8434,8.2121,6.0908,2017-03-20 18:49:10:038
7.8434,8.2121,6.0908,2017-03-20 18:49:10:048
4.2138,3.9887,0.9481,2017-03-20 18:49:10:059
4.2138,3.9887,0.9481,2017-03-20 18:49:10:068
3.0358,0.4597,-2.6911,2017-03-20 18:49:10:078
3.0358,0.4597,-2.6911,2017-03-20 18:49:10:089
3.5626,-2.1979,-7.944,2017-03-20 18:49:10:098
3.5626,-2.1979,-7.944,2017-03-20 18:49:10:109
1.7142,-2.6288,-3.3902,2017-03-20 18:49:10:119
1.7142,-2.6288,-3.3902,2017-03-20 18:49:10:128
1.4796,-2.1739,0.2538,2017-03-20 18:49:10:139
1.4796,-2.1739,0.2538,2017-03-20 18:49:10:149
1.9968,-2.9497,2.8491,2017-03-20 18:49:10:159
1.9968,-2.9497,2.8491,2017-03-20 18:49:10:168
2.8778,-2.083,5.1427,2017-03-20 18:49:10:178
2.8778,-2.083,5.1427,2017-03-20 18:49:10:189
1.3647,3.1987,6.8474,2017-03-20 18:49:10:199
-0.6369,7.8482,8.0541,2017-03-20 18:49:10:209
-0.6369,7.8482,8.0541,2017-03-20 18:49:10:218
-1.6328,33.8971,4.6304,2017-03-20 18:49:10:228
-1.6328,33.8971,4.6304,2017-03-20 18:49:10:239
-2.5953,60.353,20.2741,2017-03-20 18:49:10:249
-2.5953,60.353,20.2741,2017-03-20 18:49:10:258
35.7837,41.64,25.7568,2017-03-20 18:49:10:269
35.7837,41.64,25.7568,2017-03-20 18:49:10:279
23.5063,24.4544,-0.8954,2017-03-20 18:49:10:288
23.5063,24.4544,-0.8954,2017-03-20 18:49:10:298
-3.237,2.7198,-64.9116,2017-03-20 18:49:10:308
-3.237,2.7198,-64.9116,2017-03-20 18:49:10:319
-7.3694,2.6193,22.5582,2017-03-20 18:49:10:328
-7.3694,2.6193,22.5582,2017-03-20 18:49:10:339
-12.4307,4.4484,-1.0199,2017-03-20 18:49:10:349
-12.4307,4.4484,-1.0199,2017-03-20 18:49:10:359
-9.3374,3.8403,-4.0654,2017-03-20 18:49:10:368
-9.3374,3.8403,-4.0654,2017-03-20 18:49:10:378
-3.7733,0.2346,-2.4373,2017-03-20 18:49:10:388
-3.7733,0.2346,-2.4373,2017-03-20 18:49:10:398
0.996,-4.0223,-4.4388,2017-03-20 18:49:10:409
0.996,-4.367,-1.2737,2017-03-20 18:49:10:419
0.7135,-4.367,-1.2737,2017-03-20 18:49:10:428
0.7135,-4.367,-1.2737,2017-03-20 18:49:10:439
0.5842,-4.3574,-0.1245,2017-03-20 18:49:10:448
0.5842,-4.3574,-0.1245,2017-03-20 18:49:10:459
0.0239,-4.5921,2.2793,2017-03-20 18:49:10:468
0.0239,-4.5921,2.2793,2017-03-20 18:49:10:479
-2.466,-2.8252,1.585,2017-03-20 18:49:10:489
-2.466,-2.8252,1.585,2017-03-20 18:49:10:498
-4.8794,0.0048,1.6759,2017-03-20 18:49:10:509
-4.8794,0.0048,1.6759,2017-03-20 18:49:10:519
-5.0613,1.4557,0.3591,2017-03-20 18:49:10:529
-5.0613,1.4557,0.3591,2017-03-20 18:49:10:539
-9.3709,3.8738,-0.2921,2017-03-20 18:49:10:549
-9.3709,3.8738,-0.2921,2017-03-20 18:49:10:558
-17.8464,15.0883,-2.1452,2017-03-20 18:49:10:568
-17.8464,15.0883,-2.1452,2017-03-20 18:49:10:578
-13.9965,28.9411,1.8292,2017-03-20 18:49:10:589
-13.9965,28.9411,1.8292,2017-03-20 18:49:10:598
5.7604,35.1612,7.6136,2017-03-20 18:49:10:609
5.7604,35.1612,7.6136,2017-03-20 18:49:10:619
40.5003,31.613,14.4706,2017-03-20 18:49:10:629
40.5003,31.613,14.4706,2017-03-20 18:49:10:638
15.5288,25.4839,16.3189,2017-03-20 18:49:10:649
15.5288,25.4839,16.3189,2017-03-20 18:49:10:659
-3.3471,23.6834,4.7309,2017-03-20 18:49:10:668
-3.3471,23.6834,4.7309,2017-03-20 18:49:10:679
-0.3783,16.9653,-0.5267,2017-03-20 18:49:10:689
-0.3783,16.9653,-0.5267,2017-03-20 18:49:10:699
4.4197,10.8122,-11.2719,2017-03-20 18:49:10:709
4.4197,10.8122,-11.2719,2017-03-20 18:49:10:718
3.3375,-14.5472,-71.4956,2017-03-20 18:49:10:728
3.3375,-14.5472,-71.4956,2017-03-20 18:49:10:738
19.2207,6.4643,-13.8768,2017-03-20 18:49:10:749
19.2207,6.4643,-13.8768,2017-03-20 18:49:10:759
7.3167,8.4084,9.2512,2017-03-20 18:49:10:768
4.2617,6.79,5.8897,2017-03-20 18:49:10:778
4.2617,6.79,5.8897,2017-03-20 18:49:10:789
2.3367,2.9497,1.3072,2017-03-20 18:49:10:798
2.3367,2.9497,1.3072,2017-03-20 18:49:10:808
1.6759,0.8715,-0.723,2017-03-20 18:49:10:819
1.6759,0.8715,-0.723,2017-03-20 18:49:10:829
0.6847,-0.1628,-1.5275,2017-03-20 18:49:10:839
0.6847,-0.1628,-1.5275,2017-03-20 18:49:10:849
0.3448,-1.063,-1.4174,2017-03-20 18:49:10:859
0.3448,-1.063,-1.4174,2017-03-20 18:49:10:869
0.6943,-1.5754,-1.4413,2017-03-20 18:49:10:879
1.4509,-2.648,0.2298,2017-03-20 18:49:10:889
1.4509,-2.648,0.2298,2017-03-20 18:49:10:898
1.4509,-2.648,0.2298,2017-03-20 18:49:10:909
4.276,-1.8483,1.6424,2017-03-20 18:49:10:918
4.276,-1.8483,1.6424,2017-03-20 18:49:10:928
5.6886,5.2146,0.4932,2017-03-20 18:49:10:939
5.6886,5.2146,0.4932,2017-03-20 18:49:10:949
0.3831,27.5381,-3.3232,2017-03-20 18:49:10:958
0.3831,27.5381,-3.3232,2017-03-20 18:49:10:968
-1.5945,56.0339,10.1371,2017-03-20 18:49:10:979
-1.5945,56.0339,10.1371,2017-03-20 18:49:10:988
39.5378,54.8368,27.5812,2017-03-20 18:49:10:999
39.5378,54.8368,27.5812,2017-03-20 18:49:11:009
20.0155,27.5956,-11.5688,2017-03-20 18:49:11:019
20.0155,27.5956,-11.5688,2017-03-20 18:49:11:028
1.834,6.2776,-49.4211,2017-03-20 18:49:11:038
1.834,6.2776,-49.4211,2017-03-20 18:49:11:048
-2.2122,4.9129,4.2186,2017-03-20 18:49:11:058
-2.2122,4.9129,4.2186,2017-03-20 18:49:11:069
-7.0629,6.6655,4.3766,2017-03-20 18:49:11:079
-7.0629,6.6655,4.3766,2017-03-20 18:49:11:088
-4.9368,3.7254,5.8754,2017-03-20 18:49:11:098
-4.9368,3.7254,5.8754,2017-03-20 18:49:11:109
-4.4867,-0.2873,5.6599,2017-03-20 18:49:11:119
-4.4867,-0.2873,5.6599,2017-03-20 18:49:11:129
-1.9058,-4.2186,3.6488,2017-03-20 18:49:11:138
-1.9058,-4.2186,3.6488,2017-03-20 18:49:11:149
-1.5802,-5.3917,2.1931,2017-03-20 18:49:11:158
-3.0933,-6.0142,2.4277,2017-03-20 18:49:11:169
-3.0933,-6.0142,2.4277,2017-03-20 18:49:11:180
-5.0039,-4.6017,3.0215,2017-03-20 18:49:11:188
-5.0039,-4.6017,3.0215,2017-03-20 18:49:11:199
-6.3638,-2.5043,1.585,2017-03-20 18:49:11:208
-6.3638,-2.5043,1.585,2017-03-20 18:49:11:218
-4.3048,-1.1971,-0.7278,2017-03-20 18:49:11:229
-3.8738,-0.9864,-1.8627,2017-03-20 18:49:11:238
-3.8738,-0.9864,-1.8627,2017-03-20 18:49:11:248
-9.9982,0.8667,-14.0875,2017-03-20 18:49:11:258
-8.3797,1.1396,-8.0924,2017-03-20 18:49:11:268
-8.3797,1.1396,-8.0924,2017-03-20 18:49:11:279
-12.0428,4.1132,-3.5099,2017-03-20 18:49:11:288
-12.0428,4.1132,-3.5099,2017-03-20 18:49:11:298
-12.4546,13.9869,-0.4884,2017-03-20 18:49:11:309
-12.4546,13.9869,-0.4884,2017-03-20 18:49:11:320
-8.5425,26.8917,3.8882,2017-03-20 18:49:11:328
-8.5425,26.8917,3.8882,2017-03-20 18:49:11:338
5.4205,30.392,8.2408,2017-03-20 18:49:11:349
22.0219,28.1127,13.4219,2017-03-20 18:49:11:359
22.0219,28.1127,13.4219,2017-03-20 18:49:11:368
38.6281,22.5486,16.0459,2017-03-20 18:49:11:379
38.6281,22.5486,16.0459,2017-03-20 18:49:11:388
14.5472,27.2029,15.4139,2017-03-20 18:49:11:398
14.5472,27.2029,15.4139,2017-03-20 18:49:11:409
14.5472,27.2029,15.4139,2017-03-20 18:49:11:419
9.1985,29.8844,-2.9592,2017-03-20 18:49:11:428
9.1985,29.8844,-2.9592,2017-03-20 18:49:11:439
9.9072,20.7003,-14.6669,2017-03-20 18:49:11:448
0.158,-5.7652,-31.2635,2017-03-20 18:49:11:459
0.158,-5.7652,-31.2635,2017-03-20 18:49:11:468
0.158,-5.7652,-31.2635,2017-03-20 18:49:11:479
10.7021,7.9104,13.3501,2017-03-20 18:49:11:490
19.7761,4.9416,-10.4579,2017-03-20 18:49:11:498
19.7761,4.9416,-10.4579,2017-03-20 18:49:11:509
6.9192,4.0797,1.9154,2017-03-20 18:49:11:519
6.9192,4.0797,1.9154,2017-03-20 18:49:11:529
4.3383,3.0789,2.241,2017-03-20 18:49:11:538
4.3383,3.0789,2.241,2017-03-20 18:49:11:548
3.146,0.4501,0.6177,2017-03-20 18:49:11:558
3.146,0.4501,0.6177,2017-03-20 18:49:11:569
5.0949,-2.4229,-5.43,2017-03-20 18:49:11:579
5.0949,-2.4229,-5.43,2017-03-20 18:49:11:588
4.458,-3.9744,-4.9704,2017-03-20 18:49:11:599
4.458,-3.9744,-4.9704,2017-03-20 18:49:11:609
5.4875,-3.6966,-0.0048,2017-03-20 18:49:11:619
5.4875,-3.6966,-0.0048,2017-03-20 18:49:11:629
4.8842,-5.2816,1.087,2017-03-20 18:49:11:639
3.371,-5.0135,1.8052,2017-03-20 18:49:11:650
3.371,-5.0135,1.8052,2017-03-20 18:49:11:658
-1.2881,0.2107,5.6647,2017-03-20 18:49:11:668
-1.2881,0.2107,5.6647,2017-03-20 18:49:11:679
-4.1755,6.5218,10.9894,2017-03-20 18:49:11:689
-7.082,12.1625,13.7427,2017-03-20 18:49:11:698
-7.082,12.1625,13.7427,2017-03-20 18:49:11:709
-7.7572,37.5459,12.9862,2017-03-20 18:49:11:719
-5.2864,53.7546,12.5073,2017-03-20 18:49:11:729
-5.2864,53.7546,12.5073,2017-03-20 18:49:11:738
12.3349,52.8352,26.159,2017-03-20 18:49:11:749
12.3349,52.8352,26.159,2017-03-20 18:49:11:758
39.0015,29.0512,13.805,2017-03-20 18:49:11:768
39.0015,29.0512,13.805,2017-03-20 18:49:11:779
13.0723,19.8719,-19.4984,2017-03-20 18:49:11:789
13.0723,19.8719,-19.4984,2017-03-20 18:49:11:798
-3.644,-19.0339,-13.805,2017-03-20 18:49:11:808
-3.644,-19.0339,-13.805,2017-03-20 18:49:11:819
-14.3556,2.1308,8.3127,2017-03-20 18:49:11:829
-14.3556,2.1308,8.3127,2017-03-20 18:49:11:839
-9.5912,1.7909,-0.7614,2017-03-20 18:49:11:849
-9.5912,1.7909,-0.7614,2017-03-20 18:49:11:859
-4.6495,-1.4653,-0.431,2017-03-20 18:49:11:869
-4.6495,-1.4653,-0.431,2017-03-20 18:49:11:878
-1.9249,-2.8635,1.47,2017-03-20 18:49:11:889
-1.9249,-2.8635,1.47,2017-03-20 18:49:11:898
-1.0104,-3.6775,2.6624,2017-03-20 18:49:11:908
-1.0104,-3.6775,2.6624,2017-03-20 18:49:11:919
-1.3647,-4.7645,2.2889,2017-03-20 18:49:11:928
-1.3647,-4.7645,2.2889,2017-03-20 18:49:11:939
-2.3511,-4.1324,2.3176,2017-03-20 18:49:11:948
-2.3511,-4.1324,2.3176,2017-03-20 18:49:11:959
-3.3854,-1.5897,2.0303,2017-03-20 18:49:11:969
-3.3854,-1.5897,2.0303,2017-03-20 18:49:11:979
-3.8882,-0.0383,0.2298,2017-03-20 18:49:11:988
-3.8882,-0.0383,0.2298,2017-03-20 18:49:11:999
-4.5777,1.3024,-1.5562,2017-03-20 18:49:12:009
-4.5777,1.3024,-1.5562,2017-03-20 18:49:12:019
-7.7093,4.5346,-5.0518,2017-03-20 18:49:12:028
-7.7093,4.5346,-5.0518,2017-03-20 18:49:12:038
-14.8488,17.4825,-11.133,2017-03-20 18:49:12:049
-14.8488,17.4825,-11.133,2017-03-20 18:49:12:058
-14.9973,24.6124,-9.481,2017-03-20 18:49:12:068
-14.9973,24.6124,-9.481,2017-03-20 18:49:12:079
-8.7245,29.9371,0.9385,2017-03-20 18:49:12:088
30.3585,29.6259,17.6932,2017-03-20 18:49:12:099
30.3585,29.6259,17.6932,2017-03-20 18:49:12:109
30.3585,29.6259,17.6932,2017-03-20 18:49:12:118
41.7932,18.4066,20.7003,2017-03-20 18:49:12:129
6.8953,24.847,15.0308,2017-03-20 18:49:12:139
6.8953,24.847,15.0308,2017-03-20 18:49:12:150
-0.3543,27.2269,7.5274,2017-03-20 18:49:12:158
-0.3543,27.2269,7.5274,2017-03-20 18:49:12:169
4.7309,24.4161,-6.517,2017-03-20 18:49:12:178
4.7309,24.4161,-6.517,2017-03-20 18:49:12:189
-4.9368,-3.1508,-80.7468,2017-03-20 18:49:12:199
-4.9368,-3.1508,-80.7468,2017-03-20 18:49:12:208
-4.9895,6.0142,111.5746,2017-03-20 18:49:12:219
-4.9895,6.0142,111.5746,2017-03-20 18:49:12:229
19.0243,5.138,-21.7106,2017-03-20 18:49:12:238
13.4123,10.3813,2.0973,2017-03-20 18:49:12:249
13.4123,10.3813,2.0973,2017-03-20 18:49:12:258
7.2305,6.2584,4.1611,2017-03-20 18:49:12:268
7.2305,6.2584,4.1611,2017-03-20 18:49:12:279
4.2569,2.6815,-0.4262,2017-03-20 18:49:12:288
4.2569,2.6815,-0.4262,2017-03-20 18:49:12:299
4.9225,-0.0575,-4.9608,2017-03-20 18:49:12:309
4.9225,-0.0575,-4.9608,2017-03-20 18:49:12:318
3.8355,-2.8395,-9.4092,2017-03-20 18:49:12:328
3.8355,-2.8395,-9.4092,2017-03-20 18:49:12:339
3.7206,-4.1899,-1.81,2017-03-20 18:49:12:348
3.7206,-4.1899,-1.81,2017-03-20 18:49:12:358
3.2178,-5.9089,0.9098,2017-03-20 18:49:12:368
3.2178,-5.9089,0.9098,2017-03-20 18:49:12:378
2.1021,-3.5291,3.9456,2017-03-20 18:49:12:389
2.1021,-3.5291,3.9456,2017-03-20 18:49:12:398
-0.8475,1.7142,8.3558,2017-03-20 18:49:12:408
-0.8475,1.7142,8.3558,2017-03-20 18:49:12:419
-5.0949,7.8243,10.7212,2017-03-20 18:49:12:429
-8.5186,22.3427,5.7221,2017-03-20 18:49:12:439
-8.5186,22.3427,5.7221,2017-03-20 18:49:12:449
-14.5184,57.5183,11.1905,2017-03-20 18:49:12:458
-14.5184,57.5183,11.1905,2017-03-20 18:49:12:469
-2.897,60.2908,19.4218,2017-03-20 18:49:12:479
-2.897,60.2908,19.4218,2017-03-20 18:49:12:489
22.6156,25.2062,12.3349,2017-03-20 18:49:12:498
22.6156,25.2062,12.3349,2017-03-20 18:49:12:508
10.7691,14.6812,-13.0245,2017-03-20 18:49:12:518
10.7691,14.6812,-13.0245,2017-03-20 18:49:12:528
-19.7761,6.043,-99.1487,2017-03-20 18:49:12:538
-19.7761,6.043,-99.1487,2017-03-20 18:49:12:549
-12.3397,1.2929,18.2295,2017-03-20 18:49:12:560
-12.3397,1.2929,18.2295,2017-03-20 18:49:12:568
-11.1139,2.8683,-0.9194,2017-03-20 18:49:12:578
-11.1139,2.8683,-0.9194,2017-03-20 18:49:12:589
-6.1483,-0.9194,-3.2801,2017-03-20 18:49:12:599
-6.1483,-0.9194,-3.2801,2017-03-20 18:49:12:608
-1.6568,-3.6727,-10.7117,2017-03-20 18:49:12:619
-1.6568,-3.6727,-10.7117,2017-03-20 18:49:12:629
0.316,-3.778,-4.6304,2017-03-20 18:49:12:639
0.316,-3.778,-4.6304,2017-03-20 18:49:12:649
0.8475,-3.5051,-1.8483,2017-03-20 18:49:12:658
0.6177,-3.7972,1.2115,2017-03-20 18:49:12:669
0.6177,-3.7972,1.2115,2017-03-20 18:49:12:680
-1.7621,-3.7541,1.2689,2017-03-20 18:49:12:689
-1.7621,-3.7541,1.2689,2017-03-20 18:49:12:699
-3.4237,-2.9592,0.9098,2017-03-20 18:49:12:709
-3.4237,-2.9592,0.9098,2017-03-20 18:49:12:719
-6.7181,0.5363,0.431,2017-03-20 18:49:12:729
-6.7181,0.5363,0.431,2017-03-20 18:49:12:738
-7.9535,1.9824,0.2921,2017-03-20 18:49:12:749
-7.9535,1.9824,0.2921,2017-03-20 18:49:12:759
-8.7628,3.1173,-0.2442,2017-03-20 18:49:12:768
-8.7628,3.1173,-0.2442,2017-03-20 18:49:12:778
-18.6987,8.8825,-2.6815,2017-03-20 18:49:12:788
-18.6987,8.8825,-2.6815,2017-03-20 18:49:12:799
-22.539,18.5982,-1.2641,2017-03-20 18:49:12:809
-22.539,18.5982,-1.2641,2017-03-20 18:49:12:819
-8.8729,26.8965,7.944,2017-03-20 18:49:12:828
18.2103,27.2125,16.3763,2017-03-20 18:49:12:839
18.2103,27.2125,16.3763,2017-03-20 18:49:12:848
60.1376,20.0969,19.3452,2017-03-20 18:49:12:858
60.1376,20.0969,19.3452,2017-03-20 18:49:12:868
10.8793,22.8263,13.9726,2017-03-20 18:49:12:879
10.8793,22.8263,13.9726,2017-03-20 18:49:12:888
-12.2966,30.5309,1.4317,2017-03-20 18:49:12:899
-12.2966,30.5309,1.4317,2017-03-20 18:49:12:909
1.1253,21.8399,-4.7692,2017-03-20 18:49:12:918
1.1253,21.8399,-4.7692,2017-03-20 18:49:12:929
9.6965,10.4244,-25.618,2017-03-20 18:49:12:939
9.6965,10.4244,-25.618,2017-03-20 18:49:12:948
-2.7294,-4.4197,96.855,2017-03-20 18:49:12:959
-2.7294,-4.4197,96.855,2017-03-20 18:49:12:968
19.1919,2.4038,-16.8312,2017-03-20 18:49:12:978
12.0428,8.9735,-0.4405,2017-03-20 18:49:12:988
12.0428,8.9735,-0.4405,2017-03-20 18:49:12:999
4.6974,7.2975,4.7453,2017-03-20 18:49:13:009
4.6974,7.2975,4.7453,2017-03-20 18:49:13:018
2.4373,3.6966,1.652,2017-03-20 18:49:13:028
2.4373,3.6966,1.652,2017-03-20 18:49:13:039
2.0016,0.7997,0.3065,2017-03-20 18:49:13:049
1.968,0.1293,0.0431,2017-03-20 18:49:13:059
1.968,0.1293,0.0431,2017-03-20 18:49:13:068
2.0925,-1.4174,-0.2442,2017-03-20 18:49:13:078
2.0925,-1.4174,-0.2442,2017-03-20 18:49:13:088
2.1165,-2.1404,0.5076,2017-03-20 18:49:13:098
2.1165,-2.1404,0.5076,2017-03-20 18:49:13:108
3.5482,-3.3854,0.6321,2017-03-20 18:49:13:119
3.8882,-3.4429,0.3974,2017-03-20 18:49:13:129
3.8882,-3.4429,0.3974,2017-03-20 18:49:13:139
3.3279,-2.1069,1.2929,2017-03-20 18:49:13:149
3.3279,-2.1069,1.2929,2017-03-20 18:49:13:158
1.5227,6.019,1.2258,2017-03-20 18:49:13:169
1.5227,6.019,1.2258,2017-03-20 18:49:13:179
2.3703,30.1909,-1.4413,2017-03-20 18:49:13:189
2.3703,30.1909,-1.4413,2017-03-20 18:49:13:198
1.7238,61.191,11.6023,2017-03-20 18:49:13:209
1.7238,61.191,11.6023,2017-03-20 18:49:13:219
33.7199,51.0779,32.044,2017-03-20 18:49:13:228
33.7199,51.0779,32.044,2017-03-20 18:49:13:239
38.4509,33.9689,25.6802,2017-03-20 18:49:13:249
15.8496,19.9485,-36.9234,2017-03-20 18:49:13:260
15.8496,19.9485,-36.9234,2017-03-20 18:49:13:268
-1.9728,4.6208,16.3428,2017-03-20 18:49:13:279
-1.9728,4.6208,16.3428,2017-03-20 18:49:13:288
-1.9728,4.6208,16.3428,2017-03-20 18:49:13:298
-6.1866,2.1548,7.853,2017-03-20 18:49:13:308
-6.1866,2.1548,7.853,2017-03-20 18:49:13:318
-7.8961,5.1619,1.4269,2017-03-20 18:49:13:329
-7.8961,5.1619,1.4269,2017-03-20 18:49:13:338
-5.5019,1.2115,-1.561,2017-03-20 18:49:13:348
-3.8882,-0.4597,-1.7526,2017-03-20 18:49:13:359
-3.8882,-0.4597,-1.7526,2017-03-20 18:49:13:369
-1.3312,-2.3703,-2.3894,2017-03-20 18:49:13:378
-1.3312,-2.3703,-2.3894,2017-03-20 18:49:13:388
0.4357,-3.4093,0.0287,2017-03-20 18:49:13:398
0.4357,-3.4093,0.0287,2017-03-20 18:49:13:409
-0.2011,-3.6248,1.4892,2017-03-20 18:49:13:418
-0.2011,-3.6248,1.4892,2017-03-20 18:49:13:428
-1.1779,-3.1412,1.1779,2017-03-20 18:49:13:439
-1.1779,-3.1412,1.1779,2017-03-20 18:49:13:448
-2.8491,-2.3559,0.8092,2017-03-20 18:49:13:459
-2.8491,-2.3559,0.8092,2017-03-20 18:49:13:469
-3.984,-0.7757,0.5459,2017-03-20 18:49:13:478
-3.984,-0.7757,0.5459,2017-03-20 18:49:13:489
-5.5115,1.087,0.6225,2017-03-20 18:49:13:499
-5.5115,1.087,0.6225,2017-03-20 18:49:13:509
-11.3006,3.5674,1.5802,2017-03-20 18:49:13:519
-11.3006,3.5674,1.5802,2017-03-20 18:49:13:529
-9.6438,8.1977,0.34,2017-03-20 18:49:13:538
-9.6438,8.1977,0.34,2017-03-20 18:49:13:549
-13.9486,23.2812,3.5051,2017-03-20 18:49:13:559
-12.2631,31.2443,5.1858,2017-03-20 18:49:13:568
-12.2631,31.2443,5.1858,2017-03-20 18:49:13:579
7.9631,36.4445,7.0916,2017-03-20 18:49:13:589
7.9631,36.4445,7.0916,2017-03-20 18:49:13:598
46.6582,28.807,13.1298,2017-03-20 18:49:13:609
28.9172,25.8478,17.7937,2017-03-20 18:49:13:618
28.9172,25.8478,17.7937,2017-03-20 18:49:13:628
1.8531,26.9443,9.8019,2017-03-20 18:49:13:639
1.8531,26.9443,9.8019,2017-03-20 18:49:13:648
2.8204,24.5741,-2.2601,2017-03-20 18:49:13:659
2.8204,24.5741,-2.2601,2017-03-20 18:49:13:669
4.0941,5.8945,-96.7832,2017-03-20 18:49:13:679
4.0941,5.8945,-96.7832,2017-03-20 18:49:13:688
1.1157,-13.5129,-79.0853,2017-03-20 18:49:13:698
1.1157,-13.5129,-79.0853,2017-03-20 18:49:13:709
17.9948,2.988,-21.2892,2017-03-20 18:49:13:719
17.9948,2.988,-21.2892,2017-03-20 18:49:13:729
8.3462,8.7676,7.2544,2017-03-20 18:49:13:738
8.3462,8.7676,7.2544,2017-03-20 18:49:13:748
4.4005,5.1619,2.5762,2017-03-20 18:49:13:758
4.4005,5.1619,2.5762,2017-03-20 18:49:13:769
3.1412,1.8771,-0.8954,2017-03-20 18:49:13:778
3.1412,1.8771,-0.8954,2017-03-20 18:49:13:789
3.2992,-0.6943,-8.1355,2017-03-20 18:49:13:798
3.2992,-0.6943,-8.1355,2017-03-20 18:49:13:808
0.996,-2.4134,-8.6,2017-03-20 18:49:13:819
0.996,-2.4134,-8.6,2017-03-20 18:49:13:828
2.897,-4.1803,1.1109,2017-03-20 18:49:13:838
2.897,-4.1803,1.1109,2017-03-20 18:49:13:849
0.9864,-2.0351,3.4381,2017-03-20 18:49:13:860
0.9864,-2.0351,3.4381,2017-03-20 18:49:13:868
1.3743,-0.2203,6.5362,2017-03-20 18:49:13:878
1.3743,-0.2203,6.5362,2017-03-20 18:49:13:889
1.3743,-0.2203,6.5362,2017-03-20 18:49:13:899
-0.929,4.4436,10.8649,2017-03-20 18:49:13:910
-0.929,4.4436,10.8649,2017-03-20 18:49:13:919
-7.355,24.8614,4.6208,2017-03-20 18:49:13:929
-7.355,24.8614,4.6208,2017-03-20 18:49:13:938
0.5746,59.3858,-1.5802,2017-03-20 18:49:13:948
19.7857,63.3649,6.1435,2017-03-20 18:49:13:959
19.7857,63.3649,6.1435,2017-03-20 18:49:13:968
35.1612,39.1691,10.8601,2017-03-20 18:49:13:978
35.1612,39.1691,10.8601,2017-03-20 18:49:13:989
8.7293,20.6572,-6.1675,2017-03-20 18:49:13:998
8.7293,20.6572,-6.1675,2017-03-20 18:49:14:008
-4.8794,-1.7669,-88.1976,2017-03-20 18:49:14:018
-4.8794,-1.7669,-88.1976,2017-03-20 18:49:14:029
-9.0405,2.2362,6.3303,2017-03-20 18:49:14:038
-9.0405,2.2362,6.3303,2017-03-20 18:49:14:048
-9.3278,4.0893,6.0573,2017-03-20 18:49:14:059
-9.3278,4.0893,6.0573,2017-03-20 18:49:14:068
-6.0334,2.0973,1.2641,2017-03-20 18:49:14:079
-6.0334,2.0973,1.2641,2017-03-20 18:49:14:089
-2.9018,-2.217,2.9928,2017-03-20 18:49:14:098
-2.9018,-2.217,2.9928,2017-03-20 18:49:14:108
-1.5323,-4.3527,-1.1732,2017-03-20 18:49:14:118
-1.5323,-4.3527,-1.1732,2017-03-20 18:49:14:128
-1.3982,-4.1132,-3.0071,2017-03-20 18:49:14:138
-1.3982,-4.1132,-3.0071,2017-03-20 18:49:14:148
-1.1109,-4.3958,1.5754,2017-03-20 18:49:14:159
-1.1109,-4.3958,1.5754,2017-03-20 18:49:14:169
-1.5083,-3.7637,1.743,2017-03-20 18:49:14:178
-2.5522,-2.1117,1.8292,2017-03-20 18:49:14:188
-2.5522,-2.1117,1.8292,2017-03-20 18:49:14:198
-3.0167,-1.6089,-1.1396,2017-03-20 18:49:14:208
-3.0167,-1.6089,-1.1396,2017-03-20 18:49:14:218
-5.0326,-0.0766,-0.8859,2017-03-20 18:49:14:228
-5.0326,-0.0766,-0.8859,2017-03-20 18:49:14:239
-9.232,2.0159,-1.3264,2017-03-20 18:49:14:249
-12.038,2.9449,-1.2163,2017-03-20 18:49:14:259
-12.038,2.9449,-1.2163,2017-03-20 18:49:14:270
-11.2623,5.8897,-3.0263,2017-03-20 18:49:14:279
-13.1059,11.5448,-0.2777,2017-03-20 18:49:14:289
-13.1059,11.5448,-0.2777,2017-03-20 18:49:14:298
-10.0844,24.1048,3.6296,2017-03-20 18:49:14:309
-10.0844,24.1048,3.6296,2017-03-20 18:49:14:319
7.1012,34.012,11.6167,2017-03-20 18:49:14:329
7.1012,34.012,11.6167,2017-03-20 18:49:14:339
28.6921,34.7399,19.5606,2017-03-20 18:49:14:349
30.2819,27.2221,26.3075,2017-03-20 18:49:14:359
30.2819,27.2221,26.3075,2017-03-20 18:49:14:368
4.1276,31.1581,15.5001,2017-03-20 18:49:14:379
4.1276,31.1581,15.5001,2017-03-20 18:49:14:388
-3.0454,31.0049,3.8595,2017-03-20 18:49:14:398
3.8259,23.8798,-8.509,2017-03-20 18:49:14:409
3.8259,23.8798,-8.509,2017-03-20 18:49:14:418
-4.7549,-6.5266,-70.5571,2017-03-20 18:49:14:428
-4.7549,-6.5266,-70.5571,2017-03-20 18:49:14:438
0.4932,-13.6661,-63.2117,2017-03-20 18:49:14:448
0.4932,-13.6661,-63.2117,2017-03-20 18:49:14:458
6.7708,11.0995,2.964,2017-03-20 18:49:14:468
13.8385,8.4994,-0.0479,2017-03-20 18:49:14:478
13.8385,8.4994,-0.0479,2017-03-20 18:49:14:488
9.3996,7.2305,5.6743,2017-03-20 18:49:14:498
9.3996,7.2305,5.6743,2017-03-20 18:49:14:508
4.8698,4.0845,1.5514,2017-03-20 18:49:14:519
4.8698,4.0845,1.5514,2017-03-20 18:49:14:529
2.5953,1.245,-1.9968,2017-03-20 18:49:14:539
2.5953,1.245,-1.9968,2017-03-20 18:49:14:548
4.6448,-2.5379,-11.7172,2017-03-20 18:49:14:559
4.6448,-2.5379,-11.7172,2017-03-20 18:49:14:569
1.6376,-1.8627,-2.6863,2017-03-20 18:49:14:578
1.6376,-1.8627,-2.6863,2017-03-20 18:49:14:588
1.9585,-3.5147,1.3838,2017-03-20 18:49:14:599
1.9585,-3.5147,1.3838,2017-03-20 18:49:14:609
2.9353,-2.5331,5.6312,2017-03-20 18:49:14:619
2.4325,-1.6424,6.8618,2017-03-20 18:49:14:628
2.4325,-1.6424,6.8618,2017-03-20 18:49:14:638
0.2969,3.3375,11.2575,2017-03-20 18:49:14:649
0.2969,3.3375,11.2575,2017-03-20 18:49:14:658
-8.2025,13.7762,8.4467,2017-03-20 18:49:14:669
-8.2025,13.7762,8.4467,2017-03-20 18:49:14:678
-6.6319,49.2631,-3.9504,2017-03-20 18:49:14:689
-6.6319,49.2631,-3.9504,2017-03-20 18:49:14:699
18.1097,57.1496,14.1449,2017-03-20 18:49:14:708
18.1097,57.1496,14.1449,2017-03-20 18:49:14:719
34.3089,39.7342,12.7707,2017-03-20 18:49:14:728
14.7722,29.6019,11.8034,2017-03-20 18:49:14:738
14.7722,29.6019,11.8034,2017-03-20 18:49:14:749
-8.5808,9.1123,-83.6151,2017-03-20 18:49:14:759
-8.5808,9.1123,-83.6151,2017-03-20 18:49:14:769
-2.1691,1.8627,20.8104,2017-03-20 18:49:14:779
-2.1691,1.8627,20.8104,2017-03-20 18:49:14:790
-11.2958,3.1699,10.0413,2017-03-20 18:49:14:799
-11.2958,3.1699,10.0413,2017-03-20 18:49:14:810
-5.9903,4.7214,0.158,2017-03-20 18:49:14:819
-5.9903,4.7214,0.158,2017-03-20 18:49:14:828
-6.0956,-1.4413,7.2353,2017-03-20 18:49:14:842
-6.0956,-1.4413,7.2353,2017-03-20 18:49:14:848
-3.8355,-4.2138,1.1684,2017-03-20 18:49:14:859
-2.8778,-4.5059,-0.6704,2017-03-20 18:49:14:869
-2.1691,-3.6488,-2.4134,2017-03-20 18:49:14:879
-2.1691,-3.6488,-2.4134,2017-03-20 18:49:14:889
-5.5258,-5.6264,2.1739,2017-03-20 18:49:14:916
-4.7357,-4.6064,3.1891,2017-03-20 18:49:14:917
-4.7357,-4.6064,3.1891,2017-03-20 18:49:14:918
-4.7357,-4.6064,3.1891,2017-03-20 18:49:14:928
-3.9648,-2.7964,-0.2059,2017-03-20 18:49:14:938
-3.9648,-2.7964,-0.2059,2017-03-20 18:49:14:948
-3.96,-0.9098,-0.7757,2017-03-20 18:49:14:958
-3.96,-0.9098,-0.7757,2017-03-20 18:49:14:970
-3.96,-0.9098,-0.7757,2017-03-20 18:49:14:978
-5.6407,1.0008,-3.3136,2017-03-20 18:49:14:989
-7.3741,3.1556,-5.3103,2017-03-20 18:49:14:999
-7.3741,3.1556,-5.3103,2017-03-20 18:49:15:009
-11.4347,14.4083,-8.2313,2017-03-20 18:49:15:019
-11.4347,14.4083,-8.2313,2017-03-20 18:49:15:029
-11.6502,20.8535,-5.8179,2017-03-20 18:49:15:038
-11.6502,20.8535,-5.8179,2017-03-20 18:49:15:048
-10.8984,28.0313,2.0734,2017-03-20 18:49:15:059
11.8848,27.6961,12.4546,2017-03-20 18:49:15:069
11.8848,27.6961,12.4546,2017-03-20 18:49:15:078
54.9805,27.5094,19.8384,2017-03-20 18:49:15:089
54.9805,27.5094,19.8384,2017-03-20 18:49:15:099
17.583,24.2533,12.6988,2017-03-20 18:49:15:109
17.583,24.2533,12.6988,2017-03-20 18:49:15:118
1.494,30.0472,9.4523,2017-03-20 18:49:15:130
1.494,30.0472,9.4523,2017-03-20 18:49:15:139
10.4962,25.12,-9.2512,2017-03-20 18:49:15:149
10.4962,25.12,-9.2512,2017-03-20 18:49:15:158
-3.0981,-5.4061,-68.0911,2017-03-20 18:49:15:169
-3.0981,-5.4061,-68.0911,2017-03-20 18:49:15:179
0.4118,-7.5034,-28.6921,2017-03-20 18:49:15:189
0.4118,-7.5034,-28.6921,2017-03-20 18:49:15:198
10.7835,4.9512,-4.9321,2017-03-20 18:49:15:208
10.7835,4.9512,-4.9321,2017-03-20 18:49:15:218
13.2016,5.1044,-3.2465,2017-03-20 18:49:15:228
13.2016,5.1044,-3.2465,2017-03-20 18:49:15:238
8.5521,2.4181,2.2075,2017-03-20 18:49:15:249
8.5521,2.4181,2.2075,2017-03-20 18:49:15:258
4.9464,1.0104,-0.4501,2017-03-20 18:49:15:268
4.9464,1.0104,-0.4501,2017-03-20 18:49:15:278
4.9225,-1.2115,-6.5218,2017-03-20 18:49:15:289
4.9225,-1.2115,-6.5218,2017-03-20 18:49:15:298
4.7262,-3.0981,-6.6846,2017-03-20 18:49:15:308
4.7262,-3.0981,-6.6846,2017-03-20 18:49:15:318
6.1196,-6.0717,1.063,2017-03-20 18:49:15:329
6.1196,-6.0717,1.063,2017-03-20 18:49:15:339
5.6934,-5.9711,3.644,2017-03-20 18:49:15:351
5.6934,-5.9711,3.644,2017-03-20 18:49:15:358
0.6752,-0.0287,7.6375,2017-03-20 18:49:15:370
0.6752,-0.0287,7.6375,2017-03-20 18:49:15:378
0.6752,-0.0287,7.6375,2017-03-20 18:49:15:388
-4.6064,8.4276,14.3317,2017-03-20 18:49:15:398
-4.6064,8.4276,14.3317,2017-03-20 18:49:15:409
-16.2471,20.6955,11.133,2017-03-20 18:49:15:419
-16.2471,20.6955,11.133,2017-03-20 18:49:15:429
-12.6318,42.9759,4.7645,2017-03-20 18:49:15:439
-12.6318,42.9759,4.7645,2017-03-20 18:49:15:449
5.8083,45.916,16.1417,2017-03-20 18:49:15:459
5.8083,45.916,16.1417,2017-03-20 18:49:15:469
36.9713,32.384,31.5508,2017-03-20 18:49:15:479
36.9713,32.384,31.5508,2017-03-20 18:49:15:489
21.9309,27.1694,4.8315,2017-03-20 18:49:15:498
21.9309,27.1694,4.8315,2017-03-20 18:49:15:508
-3.8834,9.7875,-103.1278,2017-03-20 18:49:15:518
0.5746,-9.074,43.0669,2017-03-20 18:49:15:528
0.5746,-9.074,43.0669,2017-03-20 18:49:15:538
-16.5248,7.1587,-12.6318,2017-03-20 18:49:15:549
-16.5248,7.1587,-12.6318,2017-03-20 18:49:15:559
-7.671,4.7501,-3.0071,2017-03-20 18:49:15:569
-7.671,4.7501,-3.0071,2017-03-20 18:49:15:578
-4.2904,-0.1389,2.4612,2017-03-20 18:49:15:588
-4.2904,-0.1389,2.4612,2017-03-20 18:49:15:598
-1.1349,-3.4189,3.237,2017-03-20 18:49:15:608
-1.1349,-3.4189,3.237,2017-03-20 18:49:15:619
-0.4262,-4.6974,2.6911,2017-03-20 18:49:15:629
-0.4262,-4.6974,2.6911,2017-03-20 18:49:15:638
-1.7478,-6.1866,2.2122,2017-03-20 18:49:15:648
-1.7478,-6.1866,2.2122,2017-03-20 18:49:15:658
-2.964,-5.023,2.466,2017-03-20 18:49:15:668
-2.964,-5.023,2.466,2017-03-20 18:49:15:679
-2.988,-2.1596,0.996,2017-03-20 18:49:15:688
-2.988,-2.1596,0.996,2017-03-20 18:49:15:699
-2.9018,-1.2929,-0.1532,2017-03-20 18:49:15:709
-2.9018,-1.2929,-0.1532,2017-03-20 18:49:15:719
-3.1029,-0.1149,-0.1915,2017-03-20 18:49:15:729
-3.1029,-0.1149,-0.1915,2017-03-20 18:49:15:739
-7.3741,2.332,-2.0016,2017-03-20 18:49:15:749
-13.2304,5.5689,-4.5059,2017-03-20 18:49:15:759
-13.2304,5.5689,-4.5059,2017-03-20 18:49:15:769
-13.6039,15.3947,-8.1451,2017-03-20 18:49:15:779
-13.6039,15.3947,-8.1451,2017-03-20 18:49:15:789
-13.3596,28.8214,-5.7796,2017-03-20 18:49:15:799
-13.3596,28.8214,-5.7796,2017-03-20 18:49:15:809
1.2546,34.012,4.6112,2017-03-20 18:49:15:819
1.2546,34.012,4.6112,2017-03-20 18:49:15:829
50.623,28.4766,32.1589,2017-03-20 18:49:15:839
50.623,28.4766,32.1589,2017-03-20 18:49:15:849
13.2256,24.3155,29.712,2017-03-20 18:49:15:858
13.2256,24.3155,29.712,2017-03-20 18:49:15:869
-2.7581,28.309,7.1826,2017-03-20 18:49:15:878
-2.7581,28.309,7.1826,2017-03-20 18:49:15:888
3.7206,25.9148,-8.1499,2017-03-20 18:49:15:899
3.7206,25.9148,-8.1499,2017-03-20 18:49:15:909
10.9176,19.9676,-13.9965,2017-03-20 18:49:15:918
10.9176,19.9676,-13.9965,2017-03-20 18:49:15:929
-0.6608,-8.1882,-32.0775,2017-03-20 18:49:15:938
-0.6608,-8.1882,-32.0775,2017-03-20 18:49:15:950
13.4363,10.5489,-3.5721,2017-03-20 18:49:15:958
13.4363,10.5489,-3.5721,2017-03-20 18:49:15:969
13.5129,9.3757,3.7158,2017-03-20 18:49:15:978
13.5129,9.3757,3.7158,2017-03-20 18:49:15:989
6.4739,5.1571,1.3216,2017-03-20 18:49:15:999
6.4739,5.1571,1.3216,2017-03-20 18:49:16:009
5.7078,1.5419,-0.0335,2017-03-20 18:49:16:018
5.7078,1.5419,-0.0335,2017-03-20 18:49:16:028
5.7844,-1.4461,-5.0901,2017-03-20 18:49:16:039
5.7844,-1.4461,-5.0901,2017-03-20 18:49:16:049
4.1132,-3.2705,-6.4404,2017-03-20 18:49:16:059
4.1132,-3.2705,-6.4404,2017-03-20 18:49:16:071
4.4197,-3.8451,-0.9768,2017-03-20 18:49:16:079
4.4197,-3.8451,-0.9768,2017-03-20 18:49:16:088
6.3255,-7.1251,1.3216,2017-03-20 18:49:16:100
6.3255,-7.1251,1.3216,2017-03-20 18:49:16:108
2.7438,-4.142,3.304,2017-03-20 18:49:16:118
2.7438,-4.142,3.304,2017-03-20 18:49:16:129
-1.4269,2.2314,9.5385,2017-03-20 18:49:16:139
-3.5721,5.0901,10.7691,2017-03-20 18:49:16:149
-3.5721,5.0901,10.7691,2017-03-20 18:49:16:159
-11.1809,18.2869,8.4898,2017-03-20 18:49:16:169
-11.1809,18.2869,8.4898,2017-03-20 18:49:16:179
-18.5503,50.2256,5.2912,2017-03-20 18:49:16:189
-18.5503,50.2256,5.2912,2017-03-20 18:49:16:199
-0.5363,57.3459,27.7823,2017-03-20 18:49:16:209
-0.5363,57.3459,27.7823,2017-03-20 18:49:16:218
41.0653,33.0208,24.3203,2017-03-20 18:49:16:229
41.0653,33.0208,24.3203,2017-03-20 18:49:16:239
15.8353,21.6436,-2.8156,2017-03-20 18:49:16:249
15.8353,21.6436,-2.8156,2017-03-20 18:49:16:259
-13.0149,-1.2306,-75.9728,2017-03-20 18:49:16:269
-13.0149,-1.2306,-75.9728,2017-03-20 18:49:16:278
-13.4267,0.4932,25.4504,2017-03-20 18:49:16:288
-13.4267,0.4932,25.4504,2017-03-20 18:49:16:299
-12.22,2.9449,-1.8675,2017-03-20 18:49:16:309
-9.6055,1.6951,-3.9073,2017-03-20 18:49:16:318
-9.6055,1.6951,-3.9073,2017-03-20 18:49:16:328
-4.5681,-2.3415,-3.9935,2017-03-20 18:49:16:339
-4.5681,-2.3415,-3.9935,2017-03-20 18:49:16:348
-0.3256,-4.051,-3.0167,2017-03-20 18:49:16:359
-0.3256,-4.051,-3.0167,2017-03-20 18:49:16:368
0.3735,-4.2473,-0.3591,2017-03-20 18:49:16:378
0.0479,-5.3247,0.0048,2017-03-20 18:49:16:388
0.0479,-5.3247,0.0048,2017-03-20 18:49:16:399
-0.8332,-5.3151,2.4277,2017-03-20 18:49:16:409
-0.8332,-5.3151,2.4277,2017-03-20 18:49:16:419
-2.8347,-3.2226,0.8571,2017-03-20 18:49:16:428
-2.8347,-3.2226,0.8571,2017-03-20 18:49:16:438
-2.8347,-3.2226,0.8571,2017-03-20 18:49:16:448
-4.118,-0.8332,-0.8236,2017-03-20 18:49:16:458
-4.118,-0.8332,-0.8236,2017-03-20 18:49:16:469
-4.118,0.9194,-1.3168,2017-03-20 18:49:16:478
-5.0805,2.7294,-2.5043,2017-03-20 18:49:16:490
-5.0805,2.7294,-2.5043,2017-03-20 18:49:16:499
-5.0805,2.7294,-2.5043,2017-03-20 18:49:16:508
-16.2901,11.3246,-5.8562,2017-03-20 18:49:16:518
-16.2901,11.3246,-5.8562,2017-03-20 18:49:16:528
-19.1249,21.792,-3.1843,2017-03-20 18:49:16:540
-4.1563,29.6737,7.3837,2017-03-20 18:49:16:549
-4.1563,29.6737,7.3837,2017-03-20 18:49:16:558
24.6411,29.6115,14.8441,2017-03-20 18:49:16:569
24.6411,29.6115,14.8441,2017-03-20 18:49:16:578
49.2823,22.6013,18.6221,2017-03-20 18:49:16:588
49.2823,22.6013,18.6221,2017-03-20 18:49:16:599
5.4348,26.3362,11.7364,2017-03-20 18:49:16:609
5.4348,26.3362,11.7364,2017-03-20 18:49:16:619
-8.1977,26.6954,1.9154,2017-03-20 18:49:16:628
-8.1977,26.6954,1.9154,2017-03-20 18:49:16:638
4.865,17.492,-2.1883,2017-03-20 18:49:16:648
7.3071,15.2319,-1.743,2017-03-20 18:49:16:659
7.3071,15.2319,-1.743,2017-03-20 18:49:16:669
8.4372,1.6089,-102.2516,2017-03-20 18:49:16:678
8.4372,1.6089,-102.2516,2017-03-20 18:49:16:689
15.6772,11.1474,-12.8904,2017-03-20 18:49:16:699
15.6772,11.1474,-12.8904,2017-03-20 18:49:16:710
20.9876,4.9033,-7.4651,2017-03-20 18:49:16:718
20.9876,4.9033,-7.4651,2017-03-20 18:49:16:728
4.3431,7.4172,8.2361,2017-03-20 18:49:16:739
3.0933,5.4492,5.9137,2017-03-20 18:49:16:748
3.0933,5.4492,5.9137,2017-03-20 18:49:16:759
3.0933,5.4492,5.9137,2017-03-20 18:49:16:768
1.6999,2.624,2.5283,2017-03-20 18:49:16:779
1.6999,2.624,2.5283,2017-03-20 18:49:16:788
0.2059,0.091,-0.7374,2017-03-20 18:49:16:799
0.2059,0.091,-0.7374,2017-03-20 18:49:16:809
0.7661,-1.3934,-0.5507,2017-03-20 18:49:16:819
1.1492,-2.1596,-0.5076,2017-03-20 18:49:16:829
1.1492,-2.1596,-0.5076,2017-03-20 18:49:16:838
2.7102,-2.9784,0.2203,2017-03-20 18:49:16:848
2.7102,-2.9784,0.2203,2017-03-20 18:49:16:858
6.608,-0.2825,3.1316,2017-03-20 18:49:16:869
6.608,-0.2825,3.1316,2017-03-20 18:49:16:879
6.7804,10.1945,2.2889,2017-03-20 18:49:16:889
5.4731,24.191,-0.9098,2017-03-20 18:49:16:899
5.4731,24.191,-0.9098,2017-03-20 18:49:16:908
-0.6991,54.7985,1.3312,2017-03-20 18:49:16:918
-0.6991,54.7985,1.3312,2017-03-20 18:49:16:929
13.7475,56.077,24.0905,2017-03-20 18:49:16:939
36.0232,42.1236,27.9595,2017-03-20 18:49:16:949
36.0232,42.1236,27.9595,2017-03-20 18:49:16:959
22.5199,25.685,2.1644,2017-03-20 18:49:16:969
22.5199,25.685,2.1644,2017-03-20 18:49:16:979
5.4875,-1.1301,11.6167,2017-03-20 18:49:16:989
5.4875,-1.1301,11.6167,2017-03-20 18:49:16:998
-6.2345,4.8698,-0.4741,2017-03-20 18:49:17:008
-6.2345,4.8698,-0.4741,2017-03-20 18:49:17:019
-6.9671,5.6551,3.0742,2017-03-20 18:49:17:029
-6.9671,5.6551,3.0742,2017-03-20 18:49:17:039
-3.8116,0.5842,3.9935,2017-03-20 18:49:17:048
-3.8116,0.5842,3.9935,2017-03-20 18:49:17:059
-2.4421,-3.0598,4.3574,2017-03-20 18:49:17:069
-2.4421,-3.0598,4.3574,2017-03-20 18:49:17:079
-0.8715,-5.794,4.2569,2017-03-20 18:49:17:088
-0.8715,-5.794,4.2569,2017-03-20 18:49:17:099
-1.2546,-5.7557,2.557,2017-03-20 18:49:17:109
-1.2546,-5.7557,2.557,2017-03-20 18:49:17:119
-4.118,-6.1148,3.1939,2017-03-20 18:49:17:129
-4.118,-6.1148,3.1939,2017-03-20 18:49:17:139
-6.5505,-2.9305,3.3615,2017-03-20 18:49:17:150
-6.5505,-2.9305,3.3615,2017-03-20 18:49:17:158
-6.5505,-2.9305,3.3615,2017-03-20 18:49:17:168
-5.9759,-0.6608,-1.2067,2017-03-20 18:49:17:179
-4.5538,0.0239,-2.5331,2017-03-20 18:49:17:189
-4.5538,0.0239,-2.5331,2017-03-20 18:49:17:199
-6.5027,0.6704,-5.4013,2017-03-20 18:49:17:209
-6.5027,0.6704,-5.4013,2017-03-20 18:49:17:218
-6.5027,0.6704,-5.4013,2017-03-20 18:49:17:228
-8.442,1.6185,-4.2569,2017-03-20 18:49:17:238
-8.442,1.6185,-4.2569,2017-03-20 18:49:17:249
-13.441,9.9359,-4.4293,2017-03-20 18:49:17:259
-11.7938,11.7412,-4.8315,2017-03-20 18:49:17:268
-11.7938,11.7412,-4.8315,2017-03-20 18:49:17:278
-9.9072,21.8878,-0.7135,2017-03-20 18:49:17:288
-9.9072,21.8878,-0.7135,2017-03-20 18:49:17:298
20.8774,23.4201,13.2543,2017-03-20 18:49:17:308
49.1673,24.0282,21.567,2017-03-20 18:49:17:318
49.1673,24.0282,21.567,2017-03-20 18:49:17:330
23.3818,22.4241,25.6036,2017-03-20 18:49:17:339
23.3818,22.4241,25.6036,2017-03-20 18:49:17:349
-3.3327,37.8763,17.1952,2017-03-20 18:49:17:359
-3.3327,37.8763,17.1952,2017-03-20 18:49:17:369
5.7604,35.822,-0.2107,2017-03-20 18:49:17:378
5.7604,35.822,-0.2107,2017-03-20 18:49:17:388
15.7012,19.5798,-14.844,2017-03-20 18:49:17:398
15.7012,19.5798,-14.844,2017-03-20 18:49:17:409
-1.2258,-10.5393,-24.464,2017-03-20 18:49:17:421
-3.1891,2.8491,31.6944,2017-03-20 18:49:17:428
-3.1891,2.8491,31.6944,2017-03-20 18:49:17:439
25.2493,3.0023,-17.4681,2017-03-20 18:49:17:449
25.2493,3.0023,-17.4681,2017-03-20 18:49:17:459
8.7484,7.5369,5.4348,2017-03-20 18:49:17:469
8.7484,7.5369,5.4348,2017-03-20 18:49:17:479
4.774,4.027,0.5986,2017-03-20 18:49:17:489
4.774,4.027,0.5986,2017-03-20 18:49:17:498
4.8076,0.0814,-7.8003,2017-03-20 18:49:17:509
4.3958,-0.8475,-9.0453,2017-03-20 18:49:17:519
4.3958,-0.8475,-9.0453,2017-03-20 18:49:17:529
1.0965,-0.6369,-3.3136,2017-03-20 18:49:17:539
1.0965,-0.6369,-3.3136,2017-03-20 18:49:17:549
0.7518,-1.4892,0.8188,2017-03-20 18:49:17:558
0.7518,-1.4892,0.8188,2017-03-20 18:49:17:568
0.9433,-2.3176,1.4509,2017-03-20 18:49:17:578
0.9433,-2.3176,1.4509,2017-03-20 18:49:17:588
2.5379,-0.8475,4.5107,2017-03-20 18:49:17:598
2.5379,-0.8475,4.5107,2017-03-20 18:49:17:611
5.2433,3.371,8.7197,2017-03-20 18:49:17:618
5.2433,3.371,8.7197,2017-03-20 18:49:17:628
0.2921,10.7548,4.4628,2017-03-20 18:49:17:638
0.2921,10.7548,4.4628,2017-03-20 18:49:17:649
1.5706,38.5323,-4.9177,2017-03-20 18:49:17:659
1.5706,38.5323,-4.9177,2017-03-20 18:49:17:669
23.7361,54.1042,3.0119,2017-03-20 18:49:17:679
23.7361,54.1042,3.0119,2017-03-20 18:49:17:688
40.6631,44.9966,12.5983,2017-03-20 18:49:17:698
40.6631,44.9966,12.5983,2017-03-20 18:49:17:709
13.0676,26.4895,0.5219,2017-03-20 18:49:17:719
13.0676,26.4895,0.5219,2017-03-20 18:49:17:728
13.0676,26.4895,0.5219,2017-03-20 18:49:17:738
-7.1299,-1.0151,-111.0479,2017-03-20 18:49:17:748
-7.1299,-1.0151,-111.0479,2017-03-20 18:49:17:759
-6.8139,2.8108,15.8305,2017-03-20 18:49:17:769
-5.9807,6.6702,-3.8978,2017-03-20 18:49:17:779
-5.9807,6.6702,-3.8978,2017-03-20 18:49:17:789
-5.9807,6.6702,-3.8978,2017-03-20 18:49:17:799
-2.3655,1.9345,1.312,2017-03-20 18:49:17:809
-1.1684,-0.1197,1.9968,2017-03-20 18:49:17:819
-1.1684,-0.1197,1.9968,2017-03-20 18:49:17:829
0.0479,-2.8252,2.7102,2017-03-20 18:49:17:839
0.0479,-2.8252,2.7102,2017-03-20 18:49:17:848
-1.3695,-3.6248,1.9297,2017-03-20 18:49:17:858
-1.3695,-3.6248,1.9297,2017-03-20 18:49:17:868
-1.2115,-4.1611,3.5865,2017-03-20 18:49:17:878
-1.2115,-4.1611,3.5865,2017-03-20 18:49:17:888
-1.087,-3.7924,2.8874,2017-03-20 18:49:17:899
-1.9728,-3.055,1.8483,2017-03-20 18:49:17:908
-1.9728,-3.055,1.8483,2017-03-20 18:49:17:918
-3.0263,-1.7957,0.723,2017-03-20 18:49:17:928
-3.0263,-1.7957,0.723,2017-03-20 18:49:17:938
-5.5354,-0.8571,-0.1389,2017-03-20 18:49:17:949
-5.5354,-0.8571,-0.1389,2017-03-20 18:49:17:959
-9.0788,1.4988,0.1341,2017-03-20 18:49:17:969
-9.0788,1.4988,0.1341,2017-03-20 18:49:17:978
-8.916,2.8635,-0.067,2017-03-20 18:49:17:990
-8.916,2.8635,-0.067,2017-03-20 18:49:17:998
-12.3637,12.4834,-0.6081,2017-03-20 18:49:18:008
-12.3637,12.4834,-0.6081,2017-03-20 18:49:18:018
-14.0157,25.7377,0.5602,2017-03-20 18:49:18:028
-14.0157,25.7377,0.5602,2017-03-20 18:49:18:039
-10.8362,33.3848,2.083,2017-03-20 18:49:18:049
-10.8362,33.3848,2.083,2017-03-20 18:49:18:059
42.679,30.7846,14.8393,2017-03-20 18:49:18:069
42.679,30.7846,14.8393,2017-03-20 18:49:18:079
38.561,22.2278,21.725,2017-03-20 18:49:18:089
38.561,22.2278,21.725,2017-03-20 18:49:18:099
5.6838,25.685,5.4348,2017-03-20 18:49:18:109
5.6838,25.685,5.4348,2017-03-20 18:49:18:119
4.1372,24.1,-7.9679,2017-03-20 18:49:18:129
4.1372,24.1,-7.9679,2017-03-20 18:49:18:139
5.6743,-3.0981,-34.1317,2017-03-20 18:49:18:149
5.6743,-3.0981,-34.1317,2017-03-20 18:49:18:159
-5.3917,2.5235,92.4497,2017-03-20 18:49:18:169
-5.3917,2.5235,92.4497,2017-03-20 18:49:18:179
18.919,0.6321,-28.3186,2017-03-20 18:49:18:189
18.919,0.6321,-28.3186,2017-03-20 18:49:18:199
8.4659,7.4795,7.1635,2017-03-20 18:49:18:209
8.4659,7.4795,7.1635,2017-03-20 18:49:18:218
5.7892,3.6679,3.7014,2017-03-20 18:49:18:228
5.7892,3.6679,3.7014,2017-03-20 18:49:18:238
4.0941,0.8428,-0.2394,2017-03-20 18:49:18:249
4.0941,0.8428,-0.2394,2017-03-20 18:49:18:258
5.0613,-2.4852,-10.5058,2017-03-20 18:49:18:268
5.0613,-2.4852,-10.5058,2017-03-20 18:49:18:278
2.4517,-2.9018,-6.7469,2017-03-20 18:49:18:289
2.4517,-2.9018,-6.7469,2017-03-20 18:49:18:299
1.494,-2.4229,-2.0016,2017-03-20 18:49:18:309
2.3607,-3.1939,0.7422,2017-03-20 18:49:18:319
2.3607,-3.1939,0.7422,2017-03-20 18:49:18:329
2.3607,-3.1939,0.7422,2017-03-20 18:49:18:338
2.5857,-3.3615,2.5091,2017-03-20 18:49:18:348
2.5857,-3.3615,2.5091,2017-03-20 18:49:18:358
1.7526,2.2027,8.3127,2017-03-20 18:49:18:368
1.7526,2.2027,8.3127,2017-03-20 18:49:18:379
-5.0326,12.1817,11.1426,2017-03-20 18:49:18:389
-5.0326,12.1817,11.1426,2017-03-20 18:49:18:399
-9.4523,39.3846,7.4747,2017-03-20 18:49:18:409
-9.4523,39.3846,7.4747,2017-03-20 18:49:18:418
3.0981,55.1385,19.3547,2017-03-20 18:49:18:428
3.0981,55.1385,19.3547,2017-03-20 18:49:18:438
51.6429,38.7286,30.1143,2017-03-20 18:49:18:448
51.6429,38.7286,30.1143,2017-03-20 18:49:18:458
25.2014,27.1502,1.4844,2017-03-20 18:49:18:468
25.2014,27.1502,1.4844,2017-03-20 18:49:18:480
-2.9497,2.2697,-92.3587,2017-03-20 18:49:18:489
-2.9497,2.2697,-92.3587,2017-03-20 18:49:18:499
-0.7901,-5.7365,19.4218,2017-03-20 18:49:18:509
-0.7901,-5.7365,19.4218,2017-03-20 18:49:18:519
-8.4994,4.6735,1.0918,2017-03-20 18:49:18:529
-8.4994,4.6735,1.0918,2017-03-20 18:49:18:538
-6.4356,2.7246,2.739,2017-03-20 18:49:18:548
-6.4356,2.7246,2.739,2017-03-20 18:49:18:558
-3.8786,-2.5331,3.8403,2017-03-20 18:49:18:568
-3.8786,-2.5331,3.8403,2017-03-20 18:49:18:578
-1.8962,-5.3008,1.8387,2017-03-20 18:49:18:588
-2.8252,-5.6168,0.34,2017-03-20 18:49:18:598
-2.8252,-5.6168,0.34,2017-03-20 18:49:18:608
-4.9943,-7.7716,2.0446,2017-03-20 18:49:18:618
-4.9943,-7.7716,2.0446,2017-03-20 18:49:18:628
-4.0941,-4.7166,2.8443,2017-03-20 18:49:18:639
-4.0941,-4.7166,2.8443,2017-03-20 18:49:18:649
-2.8778,-2.4181,-0.9146,2017-03-20 18:49:18:658
-2.8778,-2.4181,-0.9146,2017-03-20 18:49:18:668
-1.652,-1.0774,-1.6855,2017-03-20 18:49:18:678
-1.585,-0.8284,-1.6424,2017-03-20 18:49:18:688
-1.585,-0.8284,-1.6424,2017-03-20 18:49:18:700
-5.205,1.2115,-2.5187,2017-03-20 18:49:18:709
-5.205,1.2115,-2.5187,2017-03-20 18:49:18:719
-5.5689,2.6767,-3.1699,2017-03-20 18:49:18:728
-5.5689,2.6767,-3.1699,2017-03-20 18:49:18:738
-8.6143,11.4251,-1.9345,2017-03-20 18:49:18:749
-8.9064,14.9302,1.0487,2017-03-20 18:49:18:758
-8.9064,14.9302,1.0487,2017-03-20 18:49:18:769
-11.7651,37.5459,5.9041,2017-03-20 18:49:18:779
-11.7651,37.5459,5.9041,2017-03-20 18:49:18:789
0.929,45.9304,9.9647,2017-03-20 18:49:18:798
0.929,45.9304,9.9647,2017-03-20 18:49:18:809
0.929,45.9304,9.9647,2017-03-20 18:49:18:818
22.879,39.0111,16.6636,2017-03-20 18:49:18:828
15.1026,30.7368,18.5168,2017-03-20 18:49:18:839
15.1026,30.7368,18.5168,2017-03-20 18:49:18:849
15.1026,30.7368,18.5168,2017-03-20 18:49:18:859
4.8315,24.373,2.0399,2017-03-20 18:49:18:868
4.4867,21.2749,-4.0701,2017-03-20 18:49:18:878
4.4867,21.2749,-4.0701,2017-03-20 18:49:18:888
-0.8475,-8.6862,-59.0027,2017-03-20 18:49:18:898
3.9696,-15.2319,-61.124,2017-03-20 18:49:18:909
3.9696,-15.2319,-61.124,2017-03-20 18:49:18:919
18.1624,3.8834,-23.4057,2017-03-20 18:49:18:930
18.1624,3.8834,-23.4057,2017-03-20 18:49:18:939
18.1624,3.8834,-23.4057,2017-03-20 18:49:18:948
6.8809,7.5561,7.1635,2017-03-20 18:49:18:959
6.8809,7.5561,7.1635,2017-03-20 18:49:18:968
3.7541,4.9608,2.399,2017-03-20 18:49:18:979
3.7541,4.9608,2.399,2017-03-20 18:49:18:989
3.7541,2.0255,0.6991,2017-03-20 18:49:18:998
3.7541,2.0255,0.6991,2017-03-20 18:49:19:009
2.5809,0.3543,-1.5419,2017-03-20 18:49:19:019
2.5809,0.3543,-1.5419,2017-03-20 18:49:19:029
1.3551,-1.3791,-3.1077,2017-03-20 18:49:19:038
1.3551,-1.3791,-3.1077,2017-03-20 18:49:19:048
3.0789,-4.0462,-1.1157,2017-03-20 18:49:19:059
3.0789,-4.0462,-1.1157,2017-03-20 18:49:19:068
1.0582,-2.0063,0.7614,2017-03-20 18:49:19:079
1.0582,-2.0063,0.7614,2017-03-20 18:49:19:089
3.5243,-0.498,4.1468,2017-03-20 18:49:19:099
3.5243,-0.498,4.1468,2017-03-20 18:49:19:108
2.3894,8.6766,6.8953,2017-03-20 18:49:19:119
1.4796,18.7179,3.3519,2017-03-20 18:49:19:128
1.4796,18.7179,3.3519,2017-03-20 18:49:19:141
5.861,53.4529,-11.0708,2017-03-20 18:49:19:148
5.861,53.4529,-11.0708,2017-03-20 18:49:19:160
32.8484,58.5478,16.4242,2017-03-20 18:49:19:168
32.8484,58.5478,16.4242,2017-03-20 18:49:19:179
12.0859,31.1581,6.2776,2017-03-20 18:49:19:189
12.0859,31.1581,6.2776,2017-03-20 18:49:19:198
5.7221,13.8864,-37.8571,2017-03-20 18:49:19:209
5.7221,13.8864,-37.8571,2017-03-20 18:49:19:219
0.5459,5.8179,14.8536,2017-03-20 18:49:19:229
-3.96,4.9512,-2.2027,2017-03-20 18:49:19:238
-3.96,4.9512,-2.2027,2017-03-20 18:49:19:248
-5.9424,7.0246,4.1372,2017-03-20 18:49:19:258
-5.9424,7.0246,4.1372,2017-03-20 18:49:19:268
-3.9504,3.3423,5.9568,2017-03-20 18:49:19:279
-3.9504,3.3423,5.9568,2017-03-20 18:49:19:290
-3.5051,0.3591,5.6886,2017-03-20 18:49:19:299
-3.5051,0.3591,5.6886,2017-03-20 18:49:19:312
-2.9975,-2.715,3.7685,2017-03-20 18:49:19:319
-2.9975,-2.715,3.7685,2017-03-20 18:49:19:329
-3.6296,-3.9792,0.4597,2017-03-20 18:49:19:338
-3.6296,-3.9792,0.4597,2017-03-20 18:49:19:348
-10.4435,-3.0167,1.6185,2017-03-20 18:49:19:359
-11.9662,-2.3894,0.9242,2017-03-20 18:49:19:369
-11.9662,-2.3894,0.9242,2017-03-20 18:49:19:379
-9.2703,-2.6432,1.1205,2017-03-20 18:49:19:388
-9.2703,-2.6432,1.1205,2017-03-20 18:49:19:398
-3.6775,-2.4948,-0.972,2017-03-20 18:49:19:408
-3.6775,-2.4948,-0.972,2017-03-20 18:49:19:419
1.1492,-0.8092,-12.9478,2017-03-20 18:49:19:429
1.1492,-0.8092,-12.9478,2017-03-20 18:49:19:438
-1.3551,0.0192,-3.3279,2017-03-20 18:49:19:449
-1.3551,0.0192,-3.3279,2017-03-20 18:49:19:459
-4.8219,3.7637,-2.2458,2017-03-20 18:49:19:469
-4.8219,3.7637,-2.2458,2017-03-20 18:49:19:479
-4.7501,15.342,-0.2346,2017-03-20 18:49:19:489
-4.7501,15.342,-0.2346,2017-03-20 18:49:19:498
7.082,28.4766,3.6919,2017-03-20 18:49:19:509
7.082,28.4766,3.6919,2017-03-20 18:49:19:519
7.082,28.4766,3.6919,2017-03-20 18:49:19:528
26.9443,34.7255,9.1842,2017-03-20 18:49:19:538
26.9443,34.7255,9.1842,2017-03-20 18:49:19:550
15.8209,29.8461,8.1834,2017-03-20 18:49:19:558
15.8209,29.8461,8.1834,2017-03-20 18:49:19:568
0.9529,36.7749,15.026,2017-03-20 18:49:19:578
0.9529,36.7749,15.026,2017-03-20 18:49:19:588
8.1499,34.2898,9.979,2017-03-20 18:49:19:599
8.1499,34.2898,9.979,2017-03-20 18:49:19:608
15.4187,24.3203,-4.6017,2017-03-20 18:49:19:618
15.4187,24.3203,-4.6017,2017-03-20 18:49:19:629
-7.331,-8.5617,-76.059,2017-03-20 18:49:19:638
-7.331,-8.5617,-76.059,2017-03-20 18:49:19:649
-8.3845,7.0773,83.1027,2017-03-20 18:49:19:659
-8.3845,7.0773,83.1027,2017-03-20 18:49:19:668
20.887,5.6647,-19.6755,2017-03-20 18:49:19:678
20.887,5.6647,-19.6755,2017-03-20 18:49:19:688
11.5927,4.8267,0.6512,2017-03-20 18:49:19:700
11.5927,4.8267,0.6512,2017-03-20 18:49:19:709
6.043,2.9784,-1.5083,2017-03-20 18:49:19:719
6.043,2.9784,-1.5083,2017-03-20 18:49:19:729
4.6735,0.9673,-5.2768,2017-03-20 18:49:19:738
4.6735,0.9673,-5.2768,2017-03-20 18:49:19:748
3.0119,-0.6273,-7.7285,2017-03-20 18:49:19:759
3.0119,-0.6273,-7.7285,2017-03-20 18:49:19:769
2.5618,-4.0462,-0.9146,2017-03-20 18:49:19:778
2.5618,-4.0462,-0.9146,2017-03-20 18:49:19:788
1.5227,-2.2553,2.5857,2017-03-20 18:49:19:799
2.4086,-2.6193,3.8259,2017-03-20 18:49:19:808
2.4086,-2.6193,3.8259,2017-03-20 18:49:19:818
0.6081,-1.0151,5.8993,2017-03-20 18:49:19:829
0.6081,-1.0151,5.8993,2017-03-20 18:49:19:839
-3.5626,4.209,10.3573,2017-03-20 18:49:19:848
-3.5626,4.209,10.3573,2017-03-20 18:49:19:860
-10.3621,12.0141,7.9727,2017-03-20 18:49:19:869
-10.3621,12.0141,7.9727,2017-03-20 18:49:19:879
-14.8824,42.3774,-1.9872,2017-03-20 18:49:19:889
-14.8824,42.3774,-1.9872,2017-03-20 18:49:19:898
-1.4844,60.1711,8.8346,2017-03-20 18:49:19:909
-1.4844,60.1711,8.8346,2017-03-20 18:49:19:919
22.4002,37.7949,22.4289,2017-03-20 18:49:19:928
22.4002,37.7949,22.4289,2017-03-20 18:49:19:938
12.7563,21.5191,7.604,2017-03-20 18:49:19:948
7.8578,17.7889,-9.2033,2017-03-20 18:49:19:959
7.8578,17.7889,-9.2033,2017-03-20 18:49:19:968
-10.228,-6.4069,-41.9416,2017-03-20 18:49:19:979
-10.228,-6.4069,-41.9416,2017-03-20 18:49:19:989
-10.228,-6.4069,-41.9416,2017-03-20 18:49:19:999
-10.0796,2.7725,17.4154,2017-03-20 18:49:20:008
-10.9511,3.1125,1.3312,2017-03-20 18:49:20:018
-10.9511,3.1125,1.3312,2017-03-20 18:49:20:029
-7.3406,-0.1676,-1.5179,2017-03-20 18:49:20:039
-7.3406,-0.1676,-1.5179,2017-03-20 18:49:20:048
-4.7022,-3.1843,0.6512,2017-03-20 18:49:20:059
-4.7022,-3.1843,0.6512,2017-03-20 18:49:20:069
-3.2609,-4.9177,-0.1006,2017-03-20 18:49:20:079
-3.2609,-4.9177,-0.1006,2017-03-20 18:49:20:089
-3.0263,-4.8411,-1.3886,2017-03-20 18:49:20:099
-3.0263,-4.8411,-1.3886,2017-03-20 18:49:20:109
-5.2337,-6.6559,-1.1061,2017-03-20 18:49:20:119
-5.2337,-6.6559,-1.1061,2017-03-20 18:49:20:128
-3.8738,-4.3622,1.992,2017-03-20 18:49:20:138
-3.8738,-4.3622,1.992,2017-03-20 18:49:20:149
-2.5762,-2.4612,-1.4892,2017-03-20 18:49:20:158
-2.5762,-2.4612,-1.4892,2017-03-20 18:49:20:169
-2.806,-0.2203,-1.5227,2017-03-20 18:49:20:179
-2.806,-0.2203,-1.5227,2017-03-20 18:49:20:189
-3.4189,0.498,-1.1779,2017-03-20 18:49:20:206
-3.4189,0.498,-1.1779,2017-03-20 18:49:20:209
-3.4189,0.498,-1.1779,2017-03-20 18:49:20:218
-24.7273,20.9014,-10.8026,2017-03-20 18:49:20:228
-24.7273,20.9014,-10.8026,2017-03-20 18:49:20:239
-17.5543,33.5715,-1.992,2017-03-20 18:49:20:250
-17.5543,33.5715,-1.992,2017-03-20 18:49:20:258
28.0792,31.9626,15.5192,2017-03-20 18:49:20:269
28.0792,31.9626,15.5192,2017-03-20 18:49:20:280
37.2825,19.9533,23.9372,2017-03-20 18:49:20:289
37.2825,19.9533,23.9372,2017-03-20 18:49:20:299
9.572,14.7435,19.5463,2017-03-20 18:49:20:309
9.572,14.7435,19.5463,2017-03-20 18:49:20:318
-7.6423,23.3818,8.418,2017-03-20 18:49:20:328
-7.6423,23.3818,8.418,2017-03-20 18:49:20:339
-0.3591,24.0665,2.1644,2017-03-20 18:49:20:348
-0.3591,24.0665,2.1644,2017-03-20 18:49:20:359
13.3118,18.4258,-12.5887,2017-03-20 18:49:20:369
13.3118,18.4258,-12.5887,2017-03-20 18:49:20:379
2.5379,-6.5457,-28.2612,2017-03-20 18:49:20:388
3.2561,-9.1506,-64.0928,2017-03-20 18:49:20:399
3.2561,-9.1506,-64.0928,2017-03-20 18:49:20:409
17.2383,4.6543,-13.7284,2017-03-20 18:49:20:418
17.2383,4.6543,-13.7284,2017-03-20 18:49:20:428
9.0549,7.8578,6.3255,2017-03-20 18:49:20:439
9.0549,7.8578,6.3255,2017-03-20 18:49:20:449
5.8083,3.6248,2.308,2017-03-20 18:49:20:459
5.8083,3.6248,2.308,2017-03-20 18:49:20:469
5.6886,0.7709,0.1197,2017-03-20 18:49:20:479
5.6886,0.7709,0.1197,2017-03-20 18:49:20:489
6.4308,-2.1308,-6.0813,2017-03-20 18:49:20:499
6.4308,-2.1308,-6.0813,2017-03-20 18:49:20:508
3.7541,-3.5291,-5.4875,2017-03-20 18:49:20:519
3.7541,-3.5291,-5.4875,2017-03-20 18:49:20:528
3.2609,-3.4572,0.2251,2017-03-20 18:49:20:539
3.2609,-3.4572,0.2251,2017-03-20 18:49:20:548
5.4396,-4.9129,1.6855,2017-03-20 18:49:20:559
5.4396,-4.9129,1.6855,2017-03-20 18:49:20:568
2.7725,-3.7733,2.8347,2017-03-20 18:49:20:578
2.7725,-3.7733,2.8347,2017-03-20 18:49:20:589
1.1684,1.9106,6.4596,2017-03-20 18:49:20:598
1.1684,1.9106,6.4596,2017-03-20 18:49:20:608
-5.4731,14.1641,9.1028,2017-03-20 18:49:20:619
-5.4731,14.1641,9.1028,2017-03-20 18:49:20:629
-5.4731,14.1641,9.1028,2017-03-20 18:49:20:638
-12.718,41.8602,19.7043,2017-03-20 18:49:20:649
-12.718,41.8602,19.7043,2017-03-20 18:49:20:658
-15.9981,62.8957,31.6178,2017-03-20 18:49:20:669
-15.9981,62.8957,31.6178,2017-03-20 18:49:20:678
14.2503,34.261,18.5982,2017-03-20 18:49:20:688
23.3004,25.2157,14.528,2017-03-20 18:49:20:699
16.6014,18.8903,-3.3279,2017-03-20 18:49:20:711
16.6014,18.8903,-3.3279,2017-03-20 18:49:20:719
4.8411,12.9909,-74.1819,2017-03-20 18:49:20:729
4.8411,12.9909,-74.1819,2017-03-20 18:49:20:738
-7.1204,-2.2553,32.1062,2017-03-20 18:49:20:749
-7.1204,-2.2553,32.1062,2017-03-20 18:49:20:758
-14.9542,-1.2833,8.2265,2017-03-20 18:49:20:769
-14.1641,1.7334,-0.7518,2017-03-20 18:49:20:778
-14.1641,1.7334,-0.7518,2017-03-20 18:49:20:789
-8.7915,-1.4557,-5.5067,2017-03-20 18:49:20:798
-8.7915,-1.4557,-5.5067,2017-03-20 18:49:20:808
-2.6815,-3.4237,-7.0102,2017-03-20 18:49:20:819
-0.589,-3.9887,-3.8595,2017-03-20 18:49:20:829
-0.589,-3.9887,-3.8595,2017-03-20 18:49:20:839
0.2346,-4.3096,0.5267,2017-03-20 18:49:20:849
0.2346,-4.3096,0.5267,2017-03-20 18:49:20:858
-0.8954,-4.8698,3.3088,2017-03-20 18:49:20:868
-0.8954,-4.8698,3.3088,2017-03-20 18:49:20:879
-2.308,-4.7453,2.8635,2017-03-20 18:49:20:889
-2.308,-4.7453,2.8635,2017-03-20 18:49:20:900
-2.5187,-3.1843,-0.5076,2017-03-20 18:49:20:908
-2.5187,-3.1843,-0.5076,2017-03-20 18:49:20:919
-4.4963,-0.4693,-6.2201,2017-03-20 18:49:20:928
-4.4963,-0.4693,-6.2201,2017-03-20 18:49:20:938
-4.6064,1.8866,-2.7485,2017-03-20 18:49:20:949
-4.6064,1.8866,-2.7485,2017-03-20 18:49:20:959
-11.2049,10.1179,-5.5162,2017-03-20 18:49:20:969
-11.2049,10.1179,-5.5162,2017-03-20 18:49:20:978
-19.7426,20.6763,-7.4795,2017-03-20 18:49:20:988
-19.7426,20.6763,-7.4795,2017-03-20 18:49:20:998
-11.0899,32.1062,3.1029,2017-03-20 18:49:21:008
-11.0899,32.1062,3.1029,2017-03-20 18:49:21:018
38.4269,31.5891,16.9749,2017-03-20 18:49:21:029
53.8743,27.8158,20.2358,2017-03-20 18:49:21:039
53.8743,27.8158,20.2358,2017-03-20 18:49:21:048
16.4769,23.3674,9.8785,2017-03-20 18:49:21:059
16.4769,23.3674,9.8785,2017-03-20 18:49:21:069
16.4769,23.3674,9.8785,2017-03-20 18:49:21:079
-4.4388,29.0129,5.9616,2017-03-20 18:49:21:090
-4.4388,29.0129,5.9616,2017-03-20 18:49:21:098
-0.3974,20.231,-1.063,2017-03-20 18:49:21:109
6.1196,11.3629,-3.644,2017-03-20 18:49:21:119
6.1196,11.3629,-3.644,2017-03-20 18:49:21:129
-6.675,-3.4572,-76.0638,2017-03-20 18:49:21:138
-6.675,-3.4572,-76.0638,2017-03-20 18:49:21:149
7.8721,4.2904,7.4986,2017-03-20 18:49:21:159
7.8721,4.2904,7.4986,2017-03-20 18:49:21:168
18.5024,4.8028,-2.332,2017-03-20 18:49:21:178
18.5024,4.8028,-2.332,2017-03-20 18:49:21:189
5.1475,5.6024,3.5291,2017-03-20 18:49:21:199
5.1475,5.6024,3.5291,2017-03-20 18:49:21:210
2.6097,3.3615,0.5219,2017-03-20 18:49:21:218
2.6097,3.3615,0.5219,2017-03-20 18:49:21:228
2.6097,1.8148,-1.9537,2017-03-20 18:49:21:239
1.403,1.8148,-1.9537,2017-03-20 18:49:21:249
1.403,1.8148,-1.9537,2017-03-20 18:49:21:258
1.719,-0.4836,-10.5632,2017-03-20 18:49:21:269
0.4645,-1.8723,-1.0343,2017-03-20 18:49:21:279
0.4645,-1.8723,-1.0343,2017-03-20 18:49:21:289
0.4645,-1.8723,-1.0343,2017-03-20 18:49:21:298
-0.7518,0.1437,1.5036,2017-03-20 18:49:21:308
-0.7518,0.1437,1.5036,2017-03-20 18:49:21:319
0.5219,1.992,6.0621,2017-03-20 18:49:21:328
0.5219,1.992,6.0621,2017-03-20 18:49:21:339
0.5794,6.8283,10.2903,2017-03-20 18:49:21:349
0.5794,6.8283,10.2903,2017-03-20 18:49:21:359
-1.561,22.63,3.8642,2017-03-20 18:49:21:368
-1.561,22.63,3.8642,2017-03-20 18:49:21:378
11.1666,53.9845,-13.781,2017-03-20 18:49:21:389
11.1666,53.9845,-13.781,2017-03-20 18:49:21:399
35.5252,56.3643,19.6229,2017-03-20 18:49:21:408
35.5252,56.3643,19.6229,2017-03-20 18:49:21:419
9.2608,31.479,1.8579,2017-03-20 18:49:21:429
5.2577,21.0786,-11.1857,2017-03-20 18:49:21:439
5.2577,21.0786,-11.1857,2017-03-20 18:49:21:448
-1.6424,4.4436,-36.3583,2017-03-20 18:49:21:458
-1.6424,4.4436,-36.3583,2017-03-20 18:49:21:469
-2.0734,1.0295,6.4452,2017-03-20 18:49:21:479
-2.0734,1.0295,6.4452,2017-03-20 18:49:21:488
-6.7804,5.2337,4.2473,2017-03-20 18:49:21:499
-6.7804,5.2337,4.2473,2017-03-20 18:49:21:508
-6.5745,3.7302,6.2153,2017-03-20 18:49:21:518
-6.5745,3.7302,6.2153,2017-03-20 18:49:21:529
-4.5155,-0.0479,7.1826,2017-03-20 18:49:21:539
-4.5155,-0.0479,7.1826,2017-03-20 18:49:21:549
-4.8794,-3.1268,6.2489,2017-03-20 18:49:21:558
-4.8794,-3.1268,6.2489,2017-03-20 18:49:21:568
-7.5274,-3.984,3.0119,2017-03-20 18:49:21:579
-7.5274,-3.984,3.0119,2017-03-20 18:49:21:588
-15.864,-2.4517,-1.2689,2017-03-20 18:49:21:599
-15.864,-2.4517,-1.2689,2017-03-20 18:49:21:609
-14.3221,-2.4995,-0.6943,2017-03-20 18:49:21:618
-14.3221,-2.4995,-0.6943,2017-03-20 18:49:21:628
-5.0853,-2.3942,-0.6943,2017-03-20 18:49:21:639
-5.0853,-2.3942,-0.6943,2017-03-20 18:49:21:649
-0.3926,-2.083,-4.1515,2017-03-20 18:49:21:658
-0.3926,-2.083,-4.1515,2017-03-20 18:49:21:668
0.7566,2.1404,-31.0432,2017-03-20 18:49:21:679
0.7566,2.1404,-31.0432,2017-03-20 18:49:21:689
-3.462,3.1316,-2.9161,2017-03-20 18:49:21:699
-3.462,3.1316,-2.9161,2017-03-20 18:49:21:709
-1.4988,14.8919,8.6,2017-03-20 18:49:21:718
-1.4988,14.8919,8.6,2017-03-20 18:49:21:729
6.3494,28.4958,17.6309,2017-03-20 18:49:21:739
6.3494,28.4958,17.6309,2017-03-20 18:49:21:749
8.6431,30.2148,23.0418,2017-03-20 18:49:21:759
8.6431,30.2148,23.0418,2017-03-20 18:49:21:768
6.292,28.3138,19.8575,2017-03-20 18:49:21:779
5.4779,23.9181,18.172,2017-03-20 18:49:21:789
5.4779,23.9181,18.172,2017-03-20 18:49:21:799
-1.8196,30.6554,14.0683,2017-03-20 18:49:21:808
-1.8196,30.6554,14.0683,2017-03-20 18:49:21:818
3.0119,32.7335,-1.3168,2017-03-20 18:49:21:828
3.0119,32.7335,-1.3168,2017-03-20 18:49:21:838
13.5847,25.3498,-17.3723,2017-03-20 18:49:21:848
13.5847,25.3498,-17.3723,2017-03-20 18:49:21:859
13.5847,25.3498,-17.3723,2017-03-20 18:49:21:868
0.1437,-6.608,-41.3814,2017-03-20 18:49:21:879
-3.8834,-11.1282,-25.7089,2017-03-20 18:49:21:889
-3.8834,-11.1282,-25.7089,2017-03-20 18:49:21:898
-17.1042,20.6045,54.2526,2017-03-20 18:49:21:909
-17.1042,20.6045,54.2526,2017-03-20 18:49:21:918
37.0527,0.6752,-19.6516,2017-03-20 18:49:21:928
37.0527,0.6752,-19.6516,2017-03-20 18:49:21:939
11.3629,2.2936,10.6111,2017-03-20 18:49:21:949
11.3629,2.2936,10.6111,2017-03-20 18:49:21:959
4.0989,1.3072,3.4955,2017-03-20 18:49:21:968
4.0989,1.3072,3.4955,2017-03-20 18:49:21:979
3.4237,0.5267,-4.3574,2017-03-20 18:49:21:989
3.4237,0.5267,-4.3574,2017-03-20 18:49:21:999
6.8331,-3.6152,-14.9925,2017-03-20 18:49:22:010
6.8331,-3.6152,-14.9925,2017-03-20 18:49:22:019
2.2984,-2.0063,-2.2841,2017-03-20 18:49:22:029
2.2984,-2.0063,-2.2841,2017-03-20 18:49:22:038
4.1563,-3.7733,1.1971,2017-03-20 18:49:22:049
4.1563,-3.7733,1.1971,2017-03-20 18:49:22:058
0.972,-2.3511,6.2393,2017-03-20 18:49:22:068
0.972,-2.3511,6.2393,2017-03-20 18:49:22:078
-3.2513,3.2034,14.8632,2017-03-20 18:49:22:089
-3.2513,3.2034,14.8632,2017-03-20 18:49:22:098
-12.3445,10.7117,22.1703,2017-03-20 18:49:22:109
-12.3445,10.7117,22.1703,2017-03-20 18:49:22:119
-27.1407,24.8758,18.0762,2017-03-20 18:49:22:129
-27.1407,24.8758,18.0762,2017-03-20 18:49:22:141
-17.018,41.8076,1.6855,2017-03-20 18:49:22:149
-17.018,41.8076,1.6855,2017-03-20 18:49:22:159
21.5526,38.0726,13.8241,2017-03-20 18:49:22:169
21.5526,38.0726,13.8241,2017-03-20 18:49:22:179
40.0694,27.6482,8.2935,2017-03-20 18:49:22:189
19.4218,24.2724,-3.6152,2017-03-20 18:49:22:198
19.4218,24.2724,-3.6152,2017-03-20 18:49:22:209
-15.2175,11.3485,-82.4372,2017-03-20 18:49:22:219
-15.2175,11.3485,-82.4372,2017-03-20 18:49:22:229
1.7526,-1.2881,51.6429,2017-03-20 18:49:22:238
1.7526,-1.2881,51.6429,2017-03-20 18:49:22:248
-12.8233,4.1563,-0.3639,2017-03-20 18:49:22:259
-12.8233,4.1563,-0.3639,2017-03-20 18:49:22:269
-9.256,0.6512,0.2155,2017-03-20 18:49:22:279
-9.256,0.6512,0.2155,2017-03-20 18:49:22:288
-6.4596,-2.0351,4.525,2017-03-20 18:49:22:298
-6.4596,-2.0351,4.525,2017-03-20 18:49:22:309
-5.7892,-4.2952,6.948,2017-03-20 18:49:22:319
-5.7892,-4.2952,6.948,2017-03-20 18:49:22:328
-7.4364,-5.9472,6.1962,2017-03-20 18:49:22:339
-8.0541,-4.7166,5.2912,2017-03-20 18:49:22:349
-8.0541,-4.7166,5.2912,2017-03-20 18:49:22:358
-6.0478,-2.8778,1.8675,2017-03-20 18:49:22:369
-6.0478,-2.8778,1.8675,2017-03-20 18:49:22:379
-3.2322,-1.7286,-1.063,2017-03-20 18:49:22:388
-3.2322,-1.7286,-1.063,2017-03-20 18:49:22:398
-2.49,-1.1157,-2.9209,2017-03-20 18:49:22:409
-2.49,-1.1157,-2.9209,2017-03-20 18:49:22:419
-2.49,-1.1157,-2.9209,2017-03-20 18:49:22:428
-4.7453,0.7661,-5.2672,2017-03-20 18:49:22:439
-8.2265,8.2313,-7.8147,2017-03-20 18:49:22:449
-8.2265,8.2313,-7.8147,2017-03-20 18:49:22:459
-6.1339,16.8121,-12.1961,2017-03-20 18:49:22:468
-6.1339,16.8121,-12.1961,2017-03-20 18:49:22:479
-4.7884,22.5103,-10.8745,2017-03-20 18:49:22:489
-4.7884,22.5103,-10.8745,2017-03-20 18:49:22:499
6.8618,32.0775,1.4269,2017-03-20 18:49:22:509
6.8618,32.0775,1.4269,2017-03-20 18:49:22:518
25.0721,32.2978,21.3706,2017-03-20 18:49:22:528
25.0721,32.2978,21.3706,2017-03-20 18:49:22:538
8.9543,31.2826,35.9705,2017-03-20 18:49:22:548
8.9543,31.2826,35.9705,2017-03-20 18:49:22:559
1.6951,31.3018,12.9047,2017-03-20 18:49:22:569
1.6951,31.3018,12.9047,2017-03-20 18:49:22:579
4.9656,26.4895,-0.0479,2017-03-20 18:49:22:589
5.8466,22.7066,-4.9799,2017-03-20 18:49:22:599
5.8466,22.7066,-4.9799,2017-03-20 18:49:22:608
0.0096,-5.9759,-67.1047,2017-03-20 18:49:22:619
0.0096,-5.9759,-67.1047,2017-03-20 18:49:22:628
8.9639,10.3142,2.4565,2017-03-20 18:49:22:638
8.9639,10.3142,2.4565,2017-03-20 18:49:22:649
13.0436,10.228,7.4364,2017-03-20 18:49:22:660
13.0436,10.228,7.4364,2017-03-20 18:49:22:668
7.7189,5.3965,1.9201,2017-03-20 18:49:22:679
7.7189,5.3965,1.9201,2017-03-20 18:49:22:689
5.545,2.1596,-0.2203,2017-03-20 18:49:22:700
5.545,2.1596,-0.2203,2017-03-20 18:49:22:708
3.735,-0.0287,-2.399,2017-03-20 18:49:22:718
3.735,-0.0287,-2.399,2017-03-20 18:49:22:729
4.1515,-2.4181,-5.0613,2017-03-20 18:49:22:739
4.1515,-2.4181,-5.0613,2017-03-20 18:49:22:748
3.4237,-2.648,-1.9585,2017-03-20 18:49:22:759
3.4237,-2.648,-1.9585,2017-03-20 18:49:22:769
5.0805,-3.7685,-0.2107,2017-03-20 18:49:22:778
5.0805,-3.7685,-0.2107,2017-03-20 18:49:22:788
4.9368,-4.2617,1.5993,2017-03-20 18:49:22:798
4.9368,-4.2617,1.5993,2017-03-20 18:49:22:809
2.0207,-1.0822,4.7597,2017-03-20 18:49:22:819
2.0207,-1.0822,4.7597,2017-03-20 18:49:22:829
-0.8475,5.2146,10.6734,2017-03-20 18:49:22:838
-0.8475,5.2146,10.6734,2017-03-20 18:49:22:849
-14.1066,24.507,16.4242,2017-03-20 18:49:22:858
-14.1066,24.507,16.4242,2017-03-20 18:49:22:869
-17.5208,46.6678,12.4211,2017-03-20 18:49:22:878
-17.5208,46.6678,12.4211,2017-03-20 18:49:22:888
-3.4524,48.0181,23.8941,2017-03-20 18:49:22:899
14.6908,36.1477,24.8183,2017-03-20 18:49:22:909
14.6908,36.1477,24.8183,2017-03-20 18:49:22:919
32.5324,25.3546,16.2471,2017-03-20 18:49:22:928
32.5324,25.3546,16.2471,2017-03-20 18:49:22:939
32.5324,25.3546,16.2471,2017-03-20 18:49:22:948
9.505,18.7705,-60.4057,2017-03-20 18:49:22:959
1.6616,-0.7757,41.7692,2017-03-20 18:49:22:969
1.6616,-0.7757,41.7692,2017-03-20 18:49:22:978
1.6616,-0.7757,41.7692,2017-03-20 18:49:22:988
-11.7986,6.8953,-11.2527,2017-03-20 18:49:22:999
-6.1435,3.146,-3.0023,2017-03-20 18:49:23:009
-6.1435,3.146,-3.0023,2017-03-20 18:49:23:018
-6.1435,3.146,-3.0023,2017-03-20 18:49:23:028
-2.8395,-0.316,1.3551,2017-03-20 18:49:23:039
-0.2442,-3.3375,1.9058,2017-03-20 18:49:23:049
-0.2442,-3.3375,1.9058,2017-03-20 18:49:23:058
-0.2442,-3.3375,1.9058,2017-03-20 18:49:23:069
-0.1628,-4.0031,0.7374,2017-03-20 18:49:23:079
-0.1628,-4.0031,0.7374,2017-03-20 18:49:23:089
-1.0391,-4.6735,2.0877,2017-03-20 18:49:23:098
-1.0391,-4.6735,2.0877,2017-03-20 18:49:23:108
-1.585,-3.3662,1.3408,2017-03-20 18:49:23:119
-2.2936,-2.9018,1.3024,2017-03-20 18:49:23:129
-2.2936,-2.9018,1.3024,2017-03-20 18:49:23:138
-2.6624,-2.1691,0.4262,2017-03-20 18:49:23:149
-2.6624,-2.1691,0.4262,2017-03-20 18:49:23:158
-2.6767,-1.0391,1.2163,2017-03-20 18:49:23:169
-2.6767,-1.0391,1.2163,2017-03-20 18:49:23:179
-6.3494,0.9433,3.1508,2017-03-20 18:49:23:188
-6.3494,0.9433,3.1508,2017-03-20 18:49:23:198
-10.1945,3.7637,2.8108,2017-03-20 18:49:23:209
-10.1945,3.7637,2.8108,2017-03-20 18:49:23:218
-4.774,2.8156,-0.5842,2017-03-20 18:49:23:230
-4.774,2.8156,-0.5842,2017-03-20 18:49:23:239
-6.7995,20.6045,2.1404,2017-03-20 18:49:23:249
-3.9456,32.2307,3.9648,2017-03-20 18:49:23:258
-3.9456,32.2307,3.9648,2017-03-20 18:49:23:269
17.3819,44.0485,11.564,2017-03-20 18:49:23:279
17.3819,44.0485,11.564,2017-03-20 18:49:23:288
21.3036,39.5187,25.4121,2017-03-20 18:49:23:299
7.762,37.498,23.9037,2017-03-20 18:49:23:308
7.762,37.498,23.9037,2017-03-20 18:49:23:318
-5.2433,28.1079,4.8219,2017-03-20 18:49:23:329
-5.2433,28.1079,4.8219,2017-03-20 18:49:23:339
-0.7183,18.4928,-2.6288,2017-03-20 18:49:23:349
-0.7183,18.4928,-2.6288,2017-03-20 18:49:23:358
-10.6398,-1.3024,-125.6238,2017-03-20 18:49:23:368
-10.6398,-1.3024,-125.6238,2017-03-20 18:49:23:379
8.7628,-2.1213,57.6476,2017-03-20 18:49:23:389
8.7628,-2.1213,57.6476,2017-03-20 18:49:23:398
21.0211,7.2305,-22.9077,2017-03-20 18:49:23:408
21.0211,7.2305,-22.9077,2017-03-20 18:49:23:419
5.2864,11.3054,8.7149,2017-03-20 18:49:23:429
2.1021,9.7109,7.5417,2017-03-20 18:49:23:438
2.1021,9.7109,7.5417,2017-03-20 18:49:23:448
1.6568,5.3439,3.3519,2017-03-20 18:49:23:459
1.6568,5.3439,3.3519,2017-03-20 18:49:23:468
1.7095,1.7669,1.4557,2017-03-20 18:49:23:478
1.7095,1.7669,1.4557,2017-03-20 18:49:23:489
1.3838,0,0.4597,2017-03-20 18:49:23:498
1.3838,0,0.4597,2017-03-20 18:49:23:509
0.4214,-0.7853,0.182,2017-03-20 18:49:23:518
0.4214,-0.7853,0.182,2017-03-20 18:49:23:529
0.8428,-2.4229,-0.1628,2017-03-20 18:49:23:538
0.8428,-2.4229,-0.1628,2017-03-20 18:49:23:549
2.2027,-2.0734,1.063,2017-03-20 18:49:23:559
2.2027,-2.0734,1.063,2017-03-20 18:49:23:569
4.9704,-0.1197,2.8395,2017-03-20 18:49:23:579
4.9704,-0.1197,2.8395,2017-03-20 18:49:23:588
9.2608,14.4131,0.8523,2017-03-20 18:49:23:598
9.2608,14.4131,0.8523,2017-03-20 18:49:23:609
6.1292,55.3204,-11.6215,2017-03-20 18:49:23:623
6.1292,55.3204,-11.6215,2017-03-20 18:49:23:628
6.1292,55.3204,-11.6215,2017-03-20 18:49:23:639
24.9763,65.965,18.0331,2017-03-20 18:49:23:649
21.0211,32.6856,4.2665,2017-03-20 18:49:23:661
21.0211,32.6856,4.2665,2017-03-20 18:49:23:668
21.0211,32.6856,4.2665,2017-03-20 18:49:23:678
10.4052,10.3573,-32.6856,2017-03-20 18:49:23:688
10.4052,10.3573,-32.6856,2017-03-20 18:49:23:699
2.9497,5.1092,0.9337,2017-03-20 18:49:23:709
2.9497,5.1092,0.9337,2017-03-20 18:49:23:719
-4.7357,7.106,-0.2155,2017-03-20 18:49:23:729
-4.7357,7.106,-0.2155,2017-03-20 18:49:23:738
-3.2465,5.205,4.9416,2017-03-20 18:49:23:748
-3.2465,5.205,4.9416,2017-03-20 18:49:23:759
-2.5235,1.5658,7.7524,2017-03-20 18:49:23:769
-2.5235,1.5658,7.7524,2017-03-20 18:49:23:778
-1.5131,-2.7869,5.3678,2017-03-20 18:49:23:789
-1.0582,-3.869,5.0135,2017-03-20 18:49:23:798
-1.0582,-3.869,5.0135,2017-03-20 18:49:23:809
-2.6193,-5.2481,4.6448,2017-03-20 18:49:23:819
-2.6193,-5.2481,4.6448,2017-03-20 18:49:23:829
-10.5105,-3.8259,5.3439,2017-03-20 18:49:23:838
-10.5105,-3.8259,5.3439,2017-03-20 18:49:23:849
-14.5615,-3.395,0.747,2017-03-20 18:49:23:858
-14.5615,-3.395,0.747,2017-03-20 18:49:23:868
-7.604,-3.5578,-3.0981,2017-03-20 18:49:23:878
-3.6583,-2.8443,-2.715,2017-03-20 18:49:23:889
-3.6583,-2.8443,-2.715,2017-03-20 18:49:23:900
-1.0391,-2.1356,-4.1324,2017-03-20 18:49:23:909
-1.0391,-2.1356,-4.1324,2017-03-20 18:49:23:920
-2.0973,0.4549,-33.3369,2017-03-20 18:49:23:928
-2.0973,0.4549,-33.3369,2017-03-20 18:49:23:938
-2.2075,-0.656,-0.9912,2017-03-20 18:49:23:948
-2.2075,-0.656,-0.9912,2017-03-20 18:49:23:959
-2.6767,2.4134,0.249,2017-03-20 18:49:23:968
-2.9305,7.8003,2.4421,2017-03-20 18:49:23:979
-2.9305,7.8003,2.4421,2017-03-20 18:49:23:988
3.7493,20.8104,9.1267,2017-03-20 18:49:23:998
3.7493,20.8104,9.1267,2017-03-20 18:49:24:009
22.1607,34.0455,19.6947,2017-03-20 18:49:24:019
22.1607,34.0455,19.6947,2017-03-20 18:49:24:029
6.7469,35.1277,25.7856,2017-03-20 18:49:24:038
6.7469,35.1277,25.7856,2017-03-20 18:49:24:049
-5.3199,39.8778,27.8972,2017-03-20 18:49:24:059
-5.3199,39.8778,27.8972,2017-03-20 18:49:24:068
-0.9577,38.7047,10.3477,2017-03-20 18:49:24:079
-0.9577,38.7047,10.3477,2017-03-20 18:49:24:089
14.8488,30.0999,-7.2209,2017-03-20 18:49:24:098
14.8488,30.0999,-7.2209,2017-03-20 18:49:24:109
-2.1404,0.2394,-142.6465,2017-03-20 18:49:24:118
-2.1404,0.2394,-142.6465,2017-03-20 18:49:24:129
-0.0239,-15.2463,-57.0969,2017-03-20 18:49:24:138
-0.0239,-15.2463,-57.0969,2017-03-20 18:49:24:149
17.0994,7.7476,-13.4363,2017-03-20 18:49:24:159
17.0994,7.7476,-13.4363,2017-03-20 18:49:24:169
18.9333,4.8937,-6.6702,2017-03-20 18:49:24:179
18.9333,4.8937,-6.6702,2017-03-20 18:49:24:188
5.2385,3.486,0.838,2017-03-20 18:49:24:199
5.2385,3.486,0.838,2017-03-20 18:49:24:208
4.2617,1.2977,3.4716,2017-03-20 18:49:24:219
4.2617,1.2977,3.4716,2017-03-20 18:49:24:228
3.4237,-0.1484,1.2402,2017-03-20 18:49:24:238
3.4237,-0.1484,1.2402,2017-03-20 18:49:24:248
5.8514,-3.6152,-15.2846,2017-03-20 18:49:24:258
5.8514,-3.6152,-15.2846,2017-03-20 18:49:24:269
5.1667,-6.11,-3.869,2017-03-20 18:49:24:279
5.1667,-6.11,-3.869,2017-03-20 18:49:24:288
2.6384,-3.4572,2.9832,2017-03-20 18:49:24:298
2.6384,-3.4572,2.9832,2017-03-20 18:49:24:308
0.3304,-1.3647,6.9432,2017-03-20 18:49:24:319
0.3304,-1.3647,6.9432,2017-03-20 18:49:24:329
-2.4469,4.8985,14.4179,2017-03-20 18:49:24:339
-2.4469,4.8985,14.4179,2017-03-20 18:49:24:349
-15.2559,15.7826,12.4546,2017-03-20 18:49:24:358
-15.2559,15.7826,12.4546,2017-03-20 18:49:24:369
-25.5701,37.656,-1.4365,2017-03-20 18:49:24:379
-25.5701,37.656,-1.4365,2017-03-20 18:49:24:389
-9.8641,49.1003,10.4579,2017-03-20 18:49:24:399
-9.8641,49.1003,10.4579,2017-03-20 18:49:24:409
33.0591,36.071,29.8701,2017-03-20 18:49:24:418
33.0591,36.071,29.8701,2017-03-20 18:49:24:428
26.4272,28.6155,11.4874,2017-03-20 18:49:24:439
26.4272,28.6155,11.4874,2017-03-20 18:49:24:449
1.81,17.674,-55.9429,2017-03-20 18:49:24:458
1.81,17.674,-55.9429,2017-03-20 18:49:24:469
-0.2634,-2.3846,41.4867,2017-03-20 18:49:24:481
-0.2634,-2.3846,41.4867,2017-03-20 18:49:24:489
-10.5441,5.5881,-12.9095,2017-03-20 18:49:24:498
-6.3255,4.8937,-1.0965,2017-03-20 18:49:24:509
-6.3255,4.8937,-1.0965,2017-03-20 18:49:24:519
-2.7485,-0.3208,2.557,2017-03-20 18:49:24:528
-2.7485,-0.3208,2.557,2017-03-20 18:49:24:539
0.1101,-3.4524,2.0973,2017-03-20 18:49:24:548
-0.1149,-4.2377,1.6233,2017-03-20 18:49:24:558
-0.1149,-4.2377,1.6233,2017-03-20 18:49:24:568
-0.2251,-6.857,3.8834,2017-03-20 18:49:24:578
-0.2251,-6.857,3.8834,2017-03-20 18:49:24:589
