ACCELEROMETER X (m/s²),ACCELEROMETER Y (m/s²),ACCELEROMETER Z (m/s²),YYYY-MO-DD HH-MI-SS_SSS
6.3638,5.0709,1.2594,2017-03-20 18:56:03:634
6.7181,4.7549,1.1684,2017-03-20 18:56:03:644
6.1675,4.2234,0.7949,2017-03-20 18:56:03:655
6.1675,4.2234,0.7949,2017-03-20 18:56:03:665
4.9081,3.6248,0.4022,2017-03-20 18:56:03:674
4.9081,3.6248,0.4022,2017-03-20 18:56:03:684
3.5578,3.4668,0.7997,2017-03-20 18:56:03:695
3.5578,3.4668,0.7997,2017-03-20 18:56:03:705
3.5721,3.395,1.652,2017-03-20 18:56:03:715
3.5721,3.395,1.652,2017-03-20 18:56:03:725
4.5969,2.8204,1.47,2017-03-20 18:56:03:735
4.5969,2.8204,1.47,2017-03-20 18:56:03:745
4.5969,2.8204,1.47,2017-03-20 18:56:03:754
5.4827,2.9544,0.4932,2017-03-20 18:56:03:764
6.7756,3.9313,0.1149,2017-03-20 18:56:03:775
6.7756,3.9313,0.1149,2017-03-20 18:56:03:785
8.9112,6.9192,3.644,2017-03-20 18:56:03:794
8.9112,6.9192,3.644,2017-03-20 18:56:03:804
9.8928,9.845,6.2537,2017-03-20 18:56:03:815
12.3828,15.3995,2.9688,2017-03-20 18:56:03:825
12.3828,15.3995,2.9688,2017-03-20 18:56:03:835
11.0229,18.8711,-4.4724,2017-03-20 18:56:03:844
11.0229,18.8711,-4.4724,2017-03-20 18:56:03:855
10.0556,16.3141,0.4357,2017-03-20 18:56:03:865
6.1531,10.6638,2.6719,2017-03-20 18:56:03:875
6.1531,10.6638,2.6719,2017-03-20 18:56:03:885
6.019,7.4891,-0.5986,2017-03-20 18:56:03:895
6.019,7.4891,-0.5986,2017-03-20 18:56:03:905
6.8331,7.0677,-1.0774,2017-03-20 18:56:03:915
6.8331,7.0677,-1.0774,2017-03-20 18:56:03:925
8.1499,8.5042,2.5139,2017-03-20 18:56:03:934
8.1499,8.5042,2.5139,2017-03-20 18:56:03:944
7.197,8.734,0.5794,2017-03-20 18:56:03:955
4.6926,8.5856,0.2155,2017-03-20 18:56:03:965
4.6926,8.5856,0.2155,2017-03-20 18:56:03:975
3.5434,8.169,2.1308,2017-03-20 18:56:03:985
3.5434,8.169,2.1308,2017-03-20 18:56:03:995
3.5769,7.8961,2.6097,2017-03-20 18:56:04:006
3.5769,7.8961,2.6097,2017-03-20 18:56:04:014
3.5769,7.8961,2.6097,2017-03-20 18:56:04:024
3.9792,8.2648,1.7717,2017-03-20 18:56:04:035
3.9792,8.2648,1.7717,2017-03-20 18:56:04:045
4.3383,9.4284,1.336,2017-03-20 18:56:04:054
4.4341,9.8019,0.7518,2017-03-20 18:56:04:064
4.4341,9.8019,0.7518,2017-03-20 18:56:04:074
4.4341,9.8019,0.7518,2017-03-20 18:56:04:084
4.1946,9.7492,0.5746,2017-03-20 18:56:04:094
4.276,8.8969,-0.0766,2017-03-20 18:56:04:104
4.276,8.8969,-0.0766,2017-03-20 18:56:04:114
4.276,8.8969,-0.0766,2017-03-20 18:56:04:124
4.7405,7.6998,-0.7614,2017-03-20 18:56:04:135
4.7405,7.6998,-0.7614,2017-03-20 18:56:04:145
4.7405,7.6998,-0.7614,2017-03-20 18:56:04:155
4.7405,7.6998,-0.7614,2017-03-20 18:56:04:165
4.7405,7.6998,-0.7614,2017-03-20 18:56:04:175
4.7405,7.6998,-0.7614,2017-03-20 18:56:04:185
4.7405,7.6998,-0.7614,2017-03-20 18:56:04:195
4.6878,7.2401,-1.1205,2017-03-20 18:56:04:204
4.6878,7.2401,-1.1205,2017-03-20 18:56:04:214
4.5203,6.5122,0.7757,2017-03-20 18:56:04:225
4.5203,6.5122,0.7757,2017-03-20 18:56:04:235
4.5203,6.5122,0.7757,2017-03-20 18:56:04:244
4.2473,6.6463,0.6177,2017-03-20 18:56:04:255
4.2473,6.6463,0.6177,2017-03-20 18:56:04:265
4.2473,6.6463,0.6177,2017-03-20 18:56:04:275
4.1324,6.6655,0.1484,2017-03-20 18:56:04:285
4.1324,6.6655,0.1484,2017-03-20 18:56:04:294
4.8554,7.3454,-0.1724,2017-03-20 18:56:04:305
4.8554,7.3454,-0.1724,2017-03-20 18:56:04:315
4.8554,7.3454,-0.1724,2017-03-20 18:56:04:325
4.889,7.9535,0.1532,2017-03-20 18:56:04:335
4.889,7.9535,0.1532,2017-03-20 18:56:04:345
4.889,7.9535,0.1532,2017-03-20 18:56:04:354
4.4436,8.2025,0.8715,2017-03-20 18:56:04:365
4.4436,8.2025,0.8715,2017-03-20 18:56:04:375
4.4436,8.2025,0.8715,2017-03-20 18:56:04:385
2.2362,9.0405,-5.3439,2017-03-20 18:56:04:394
2.2362,9.0405,-5.3439,2017-03-20 18:56:04:405
3.9361,9.7971,4.0031,2017-03-20 18:56:04:415
3.9361,9.7971,4.0031,2017-03-20 18:56:04:425
3.9361,9.7971,4.0031,2017-03-20 18:56:04:434
0.4501,11.6262,-3.395,2017-03-20 18:56:04:445
0.4501,11.6262,-3.395,2017-03-20 18:56:04:454
0.4501,11.6262,-3.395,2017-03-20 18:56:04:465
6.5649,7.9679,0.1676,2017-03-20 18:56:04:475
6.5649,7.9679,0.1676,2017-03-20 18:56:04:485
6.5649,7.9679,0.1676,2017-03-20 18:56:04:495
5.7557,7.9248,-0.9385,2017-03-20 18:56:04:505
5.7557,7.9248,-0.9385,2017-03-20 18:56:04:515
5.7557,7.9248,-0.9385,2017-03-20 18:56:04:524
6.4021,9.4619,2.1931,2017-03-20 18:56:04:534
6.4021,9.4619,2.1931,2017-03-20 18:56:04:545
5.5354,9.5193,1.3743,2017-03-20 18:56:04:555
5.5354,9.5193,1.3743,2017-03-20 18:56:04:564
5.5354,9.5193,1.3743,2017-03-20 18:56:04:575
5.3534,11.0133,2.1165,2017-03-20 18:56:04:585
5.3534,11.0133,2.1165,2017-03-20 18:56:04:595
5.3534,11.0133,2.1165,2017-03-20 18:56:04:605
5.5593,12.0716,1.8818,2017-03-20 18:56:04:614
5.5593,12.0716,1.8818,2017-03-20 18:56:04:625
5.5593,12.0716,1.8818,2017-03-20 18:56:04:635
6.8283,12.8569,0.2155,2017-03-20 18:56:04:645
6.8283,12.8569,0.2155,2017-03-20 18:56:04:656
6.8283,12.8569,0.2155,2017-03-20 18:56:04:664
5.8658,12.5121,-1.0726,2017-03-20 18:56:04:674
5.8658,12.5121,-1.0726,2017-03-20 18:56:04:685
5.77,11.5017,1.0104,2017-03-20 18:56:04:695
5.77,11.5017,1.0104,2017-03-20 18:56:04:705
5.77,11.5017,1.0104,2017-03-20 18:56:04:714
7.2305,9.7157,-4.4724,2017-03-20 18:56:04:724
7.2305,9.7157,-4.4724,2017-03-20 18:56:04:735
7.2305,9.7157,-4.4724,2017-03-20 18:56:04:745
5.636,9.5337,-1.2785,2017-03-20 18:56:04:755
5.636,9.5337,-1.2785,2017-03-20 18:56:04:764
4.0462,8.6383,2.2601,2017-03-20 18:56:04:774
4.0462,8.6383,2.2601,2017-03-20 18:56:04:784
4.0462,8.6383,2.2601,2017-03-20 18:56:04:795
3.5721,7.7285,1.8914,2017-03-20 18:56:04:804
3.5721,7.7285,1.8914,2017-03-20 18:56:04:814
3.5721,7.7285,1.8914,2017-03-20 18:56:04:825
4.8028,7.2018,0.3831,2017-03-20 18:56:04:835
4.8028,7.2018,0.3831,2017-03-20 18:56:04:844
5.0613,8.0541,0.1006,2017-03-20 18:56:04:855
5.0613,8.0541,0.1006,2017-03-20 18:56:04:865
5.3678,10.1562,-0.1484,2017-03-20 18:56:04:874
5.3678,10.1562,-0.1484,2017-03-20 18:56:04:885
5.3678,10.1562,-0.1484,2017-03-20 18:56:04:895
5.3678,10.5441,-0.7135,2017-03-20 18:56:04:904
5.3678,10.5441,-0.7135,2017-03-20 18:56:04:914
5.6024,9.7492,-1.8962,2017-03-20 18:56:04:924
5.6024,9.7492,-1.8962,2017-03-20 18:56:04:934
4.7932,7.9248,0.656,2017-03-20 18:56:04:945
4.7932,7.9248,0.656,2017-03-20 18:56:04:955
4.6352,6.6559,3.146,2017-03-20 18:56:04:964
4.6352,6.6559,3.146,2017-03-20 18:56:04:975
4.6352,6.6559,3.146,2017-03-20 18:56:04:985
2.9497,5.9999,-0.067,2017-03-20 18:56:04:995
2.9497,5.9999,-0.067,2017-03-20 18:56:05:004
1.9154,6.2441,-3.8068,2017-03-20 18:56:05:014
1.9154,6.2441,-3.8068,2017-03-20 18:56:05:024
3.0837,5.6503,0.0575,2017-03-20 18:56:05:035
3.0837,5.6503,0.0575,2017-03-20 18:56:05:044
3.0837,5.6503,0.0575,2017-03-20 18:56:05:054
3.9744,5.2912,1.336,2017-03-20 18:56:05:064
3.9744,5.2912,1.336,2017-03-20 18:56:05:074
4.4293,5.2241,1.4605,2017-03-20 18:56:05:084
4.4293,5.2241,1.4605,2017-03-20 18:56:05:094
5.4205,5.5162,1.47,2017-03-20 18:56:05:105
5.4205,5.5162,1.47,2017-03-20 18:56:05:114
5.4205,5.5162,1.47,2017-03-20 18:56:05:125
7.2401,5.1763,0.6416,2017-03-20 18:56:05:134
7.2401,5.1763,0.6416,2017-03-20 18:56:05:144
7.4172,4.9273,0.0096,2017-03-20 18:56:05:154
7.4172,4.9273,0.0096,2017-03-20 18:56:05:165
5.5306,4.4867,0.4741,2017-03-20 18:56:05:175
5.5306,4.4867,0.4741,2017-03-20 18:56:05:184
5.5306,4.4867,0.4741,2017-03-20 18:56:05:194
4.3527,4.1037,0.6512,2017-03-20 18:56:05:205
4.1276,3.7493,0.6321,2017-03-20 18:56:05:215
4.1276,3.7493,0.6321,2017-03-20 18:56:05:224
4.1276,3.7493,0.6321,2017-03-20 18:56:05:234
5.8514,3.1939,0.6895,2017-03-20 18:56:05:244
5.8514,3.1939,0.6895,2017-03-20 18:56:05:255
7.1347,3.4189,0.814,2017-03-20 18:56:05:265
7.1347,3.4189,0.814,2017-03-20 18:56:05:275
7.9871,3.3902,0.3496,2017-03-20 18:56:05:285
7.9871,3.3902,0.3496,2017-03-20 18:56:05:294
8.0062,3.5721,-0.0527,2017-03-20 18:56:05:305
8.0062,3.5721,-0.0527,2017-03-20 18:56:05:315
8.7436,4.9321,0.3543,2017-03-20 18:56:05:324
8.7436,4.9321,0.3543,2017-03-20 18:56:05:335
8.7436,4.9321,0.3543,2017-03-20 18:56:05:345
12.2152,10.6686,7.4172,2017-03-20 18:56:05:354
12.2152,10.6686,7.4172,2017-03-20 18:56:05:365
14.4658,12.4834,6.5314,2017-03-20 18:56:05:374
14.4658,12.4834,6.5314,2017-03-20 18:56:05:384
11.8274,15.1457,-2.241,2017-03-20 18:56:05:395
11.8274,15.1457,-2.241,2017-03-20 18:56:05:404
7.1443,8.8107,0.5602,2017-03-20 18:56:05:414
7.1443,8.8107,0.5602,2017-03-20 18:56:05:424
3.62,6.3686,0.3112,2017-03-20 18:56:05:434
3.62,6.3686,0.3112,2017-03-20 18:56:05:444
2.8587,6.1435,0.4214,2017-03-20 18:56:05:455
2.8587,6.1435,0.4214,2017-03-20 18:56:05:465
7.3933,9.1985,1.2785,2017-03-20 18:56:05:474
7.3933,9.1985,1.2785,2017-03-20 18:56:05:484
8.4611,11.1474,0.8284,2017-03-20 18:56:05:494
8.4611,11.1474,0.8284,2017-03-20 18:56:05:504
5.272,9.0549,0.6416,2017-03-20 18:56:05:515
5.272,9.0549,0.6416,2017-03-20 18:56:05:525
3.5626,7.8913,1.561,2017-03-20 18:56:05:534
3.5626,7.8913,1.561,2017-03-20 18:56:05:545
3.5434,7.7237,1.743,2017-03-20 18:56:05:555
3.5434,7.7237,1.743,2017-03-20 18:56:05:565
3.5434,7.7237,1.743,2017-03-20 18:56:05:575
4.3718,7.7716,1.7142,2017-03-20 18:56:05:584
4.3718,7.7716,1.7142,2017-03-20 18:56:05:594
4.525,8.4467,1.2546,2017-03-20 18:56:05:604
4.525,8.4467,1.2546,2017-03-20 18:56:05:614
4.7645,9.2464,1.0726,2017-03-20 18:56:05:624
4.7645,9.2464,1.0726,2017-03-20 18:56:05:635
5.3534,8.8825,0.0479,2017-03-20 18:56:05:644
5.3534,8.8825,0.0479,2017-03-20 18:56:05:654
5.43,7.9487,-0.8954,2017-03-20 18:56:05:664
5.43,7.9487,-0.8954,2017-03-20 18:56:05:675
4.8842,7.2305,-1.245,2017-03-20 18:56:05:685
4.8842,7.2305,-1.245,2017-03-20 18:56:05:694
4.8842,7.2305,-1.245,2017-03-20 18:56:05:704
4.7884,6.948,-1.1827,2017-03-20 18:56:05:715
4.7884,6.948,-1.1827,2017-03-20 18:56:05:724
4.8219,6.1339,-0.2873,2017-03-20 18:56:05:735
4.8219,6.1339,-0.2873,2017-03-20 18:56:05:744
4.458,5.9568,0.2873,2017-03-20 18:56:05:754
4.458,5.9568,0.2873,2017-03-20 18:56:05:765
3.8499,6.0382,0.5555,2017-03-20 18:56:05:775
3.8499,6.0382,0.5555,2017-03-20 18:56:05:785
4.0845,6.268,0.5315,2017-03-20 18:56:05:795
4.0845,6.268,0.5315,2017-03-20 18:56:05:805
4.1132,6.8091,0.2825,2017-03-20 18:56:05:814
4.1132,6.8091,0.2825,2017-03-20 18:56:05:825
4.367,7.446,0.1915,2017-03-20 18:56:05:835
4.367,7.446,0.1915,2017-03-20 18:56:05:844
4.367,7.446,0.1915,2017-03-20 18:56:05:854
4.7597,8.0589,0.1867,2017-03-20 18:56:05:865
4.7597,8.0589,0.1867,2017-03-20 18:56:05:875
4.7932,8.0158,0.2825,2017-03-20 18:56:05:884
4.7932,8.0158,0.2825,2017-03-20 18:56:05:894
4.3096,8.0637,0.8906,2017-03-20 18:56:05:904
4.3096,8.0637,0.8906,2017-03-20 18:56:05:916
3.4046,8.6431,-0.8523,2017-03-20 18:56:05:925
3.4046,8.6431,-0.8523,2017-03-20 18:56:05:934
4.051,9.2512,-3.4477,2017-03-20 18:56:05:944
4.051,9.2512,-3.4477,2017-03-20 18:56:05:955
5.0566,9.5529,2.2745,2017-03-20 18:56:05:964
5.0566,9.5529,2.2745,2017-03-20 18:56:05:974
2.2266,10.6015,0.9385,2017-03-20 18:56:05:984
2.2266,10.6015,0.9385,2017-03-20 18:56:05:994
2.2266,10.6015,0.9385,2017-03-20 18:56:06:006
6.3829,8.1977,-0.0958,2017-03-20 18:56:06:015
6.3829,8.1977,-0.0958,2017-03-20 18:56:06:025
6.1723,7.8099,0.1341,2017-03-20 18:56:06:035
6.1723,7.8099,0.1341,2017-03-20 18:56:06:044
5.861,8.3031,-0.2825,2017-03-20 18:56:06:055
5.861,8.3031,-0.2825,2017-03-20 18:56:06:064
5.8323,9.2943,1.5179,2017-03-20 18:56:06:074
5.8323,9.2943,1.5179,2017-03-20 18:56:06:085
5.5162,9.5816,1.9441,2017-03-20 18:56:06:095
5.5162,9.5816,1.9441,2017-03-20 18:56:06:104
5.0996,10.2711,2.3176,2017-03-20 18:56:06:115
5.0996,10.2711,2.3176,2017-03-20 18:56:06:125
5.3774,11.0612,1.9441,2017-03-20 18:56:06:134
5.3774,11.0612,1.9441,2017-03-20 18:56:06:144
6.0956,11.3629,1.5371,2017-03-20 18:56:06:155
6.0956,11.3629,1.5371,2017-03-20 18:56:06:164
6.5553,12.0333,1.3072,2017-03-20 18:56:06:174
6.5553,12.0333,1.3072,2017-03-20 18:56:06:184
6.5936,13.4889,0.7087,2017-03-20 18:56:06:194
6.5936,13.4889,0.7087,2017-03-20 18:56:06:204
6.3398,14.8105,-2.3176,2017-03-20 18:56:06:214
6.3398,14.8105,-2.3176,2017-03-20 18:56:06:224
6.6032,12.9574,4.8842,2017-03-20 18:56:06:235
6.6032,12.9574,4.8842,2017-03-20 18:56:06:244
6.5266,10.2041,-5.6647,2017-03-20 18:56:06:255
6.5266,10.2041,-5.6647,2017-03-20 18:56:06:265
6.3111,9.4332,-4.3814,2017-03-20 18:56:06:275
6.3111,9.4332,-4.3814,2017-03-20 18:56:06:284
5.4636,9.1746,-0.1724,2017-03-20 18:56:06:295
5.4636,9.1746,-0.1724,2017-03-20 18:56:06:305
4.4293,8.4132,2.7773,2017-03-20 18:56:06:315
4.4293,8.4132,2.7773,2017-03-20 18:56:06:324
3.5626,7.3741,2.241,2017-03-20 18:56:06:334
3.5626,7.3741,2.241,2017-03-20 18:56:06:344
4.4915,6.7133,1.3024,2017-03-20 18:56:06:354
4.4915,6.7133,1.3024,2017-03-20 18:56:06:364
4.9943,6.9001,0.2682,2017-03-20 18:56:06:374
4.9943,6.9001,0.2682,2017-03-20 18:56:06:384
4.6543,7.1539,-0.4597,2017-03-20 18:56:06:394
4.9081,7.3933,-0.4836,2017-03-20 18:56:06:405
4.9081,7.3933,-0.4836,2017-03-20 18:56:06:414
4.865,8.4994,-0.4884,2017-03-20 18:56:06:425
4.956,9.0166,-0.6177,2017-03-20 18:56:06:435
4.956,9.0166,-0.6177,2017-03-20 18:56:06:445
6.0047,8.9735,-0.2251,2017-03-20 18:56:06:454
6.0047,8.9735,-0.2251,2017-03-20 18:56:06:464
6.4691,8.2552,1.1779,2017-03-20 18:56:06:474
6.4691,8.2552,1.1779,2017-03-20 18:56:06:485
6.0525,8.3797,1.3934,2017-03-20 18:56:06:494
5.3534,8.5329,0.8045,2017-03-20 18:56:06:504
5.3534,8.5329,0.8045,2017-03-20 18:56:06:515
4.2186,7.4412,-1.0008,2017-03-20 18:56:06:525
4.2186,7.4412,-1.0008,2017-03-20 18:56:06:535
3.5674,6.7564,-1.8771,2017-03-20 18:56:06:545
3.5674,6.7564,-1.8771,2017-03-20 18:56:06:555
2.6001,6.8426,-2.3224,2017-03-20 18:56:06:565
2.6001,6.8426,-2.3224,2017-03-20 18:56:06:575
2.8683,7.0006,0.0144,2017-03-20 18:56:06:585
2.8683,7.0006,0.0144,2017-03-20 18:56:06:594
3.1316,6.8761,1.6616,2017-03-20 18:56:06:604
3.486,6.6846,1.6233,2017-03-20 18:56:06:615
3.486,6.6846,1.6233,2017-03-20 18:56:06:625
4.5681,6.3829,1.4796,2017-03-20 18:56:06:635
4.5681,6.3829,1.4796,2017-03-20 18:56:06:644
6.1292,6.043,1.5419,2017-03-20 18:56:06:654
6.1292,6.043,1.5419,2017-03-20 18:56:06:664
7.5896,5.1858,1.4509,2017-03-20 18:56:06:675
7.829,4.6591,0.9529,2017-03-20 18:56:06:685
7.1443,4.276,0.3879,2017-03-20 18:56:06:694
7.1443,4.276,0.3879,2017-03-20 18:56:06:704
5.2768,4.0175,0.0766,2017-03-20 18:56:06:714
5.2768,4.0175,0.0766,2017-03-20 18:56:06:724
4.2952,3.7014,0.9337,2017-03-20 18:56:06:734
3.96,3.5626,0.929,2017-03-20 18:56:06:744
3.96,3.5626,0.929,2017-03-20 18:56:06:754
3.9313,3.1795,0.7901,2017-03-20 18:56:06:764
3.9313,3.1795,0.7901,2017-03-20 18:56:06:774
4.8076,3.0406,1.0008,2017-03-20 18:56:06:785
5.3534,2.8395,1.0247,2017-03-20 18:56:06:795
5.3534,2.8395,1.0247,2017-03-20 18:56:06:805
6.8905,2.8539,0.5363,2017-03-20 18:56:06:815
6.8905,2.8539,0.5363,2017-03-20 18:56:06:825
7.8099,3.8547,0.4597,2017-03-20 18:56:06:835
8.2361,4.3335,0.4788,2017-03-20 18:56:06:845
8.2361,4.3335,0.4788,2017-03-20 18:56:06:855
9.0453,6.6511,4.2377,2017-03-20 18:56:06:864
9.0453,6.6511,4.2377,2017-03-20 18:56:06:874
12.4738,12.7419,8.2935,2017-03-20 18:56:06:884
15.6485,16.1657,3.6344,2017-03-20 18:56:06:894
15.6485,16.1657,3.6344,2017-03-20 18:56:06:905
14.6812,19.6229,-3.4046,2017-03-20 18:56:06:915
14.6812,19.6229,-3.4046,2017-03-20 18:56:06:924
8.2073,10.1706,0.6321,2017-03-20 18:56:06:935
5.1954,7.7093,0.34,2017-03-20 18:56:06:945
5.1954,7.7093,0.34,2017-03-20 18:56:06:954
2.2697,5.8179,-0.0335,2017-03-20 18:56:06:964
2.2697,5.8179,-0.0335,2017-03-20 18:56:06:974
4.3239,5.8658,0.4262,2017-03-20 18:56:06:985
5.6024,8.1642,1.4365,2017-03-20 18:56:06:995
5.6024,8.1642,1.4365,2017-03-20 18:56:07:005
6.0621,11.0756,1.087,2017-03-20 18:56:07:014
6.0621,11.0756,1.087,2017-03-20 18:56:07:024
4.5155,9.0118,0.1915,2017-03-20 18:56:07:035
3.3519,8.6143,1.2785,2017-03-20 18:56:07:045
3.3519,8.6143,1.2785,2017-03-20 18:56:07:055
3.0263,8.3893,2.6576,2017-03-20 18:56:07:064
3.0263,8.3893,2.6576,2017-03-20 18:56:07:075
3.9504,8.6431,2.5283,2017-03-20 18:56:07:085
3.9504,8.6431,2.5283,2017-03-20 18:56:07:095
4.4436,8.9687,2.1069,2017-03-20 18:56:07:104
4.4436,8.9687,2.1069,2017-03-20 18:56:07:114
5.0901,9.481,1.312,2017-03-20 18:56:07:125
4.6304,9.2464,0.3639,2017-03-20 18:56:07:135
4.6304,9.2464,0.3639,2017-03-20 18:56:07:144
4.2713,8.8107,0.1676,2017-03-20 18:56:07:155
4.2713,8.8107,0.1676,2017-03-20 18:56:07:164
4.5155,7.6279,-0.2346,2017-03-20 18:56:07:174
4.5921,6.7373,-0.7566,2017-03-20 18:56:07:184
4.5921,6.7373,-0.7566,2017-03-20 18:56:07:195
4.64,6.3255,-0.8954,2017-03-20 18:56:07:204
4.64,6.3255,-0.8954,2017-03-20 18:56:07:214
4.7501,6.0813,-0.9673,2017-03-20 18:56:07:224
4.7501,6.0813,-0.9673,2017-03-20 18:56:07:234
4.8602,6.2106,-0.7614,2017-03-20 18:56:07:246
4.9416,6.3782,-0.5171,2017-03-20 18:56:07:255
4.9416,6.3782,-0.5171,2017-03-20 18:56:07:265
4.8267,6.7612,0.182,2017-03-20 18:56:07:275
4.8267,6.7612,0.182,2017-03-20 18:56:07:285
4.7597,6.9192,0.5171,2017-03-20 18:56:07:296
4.7597,6.9192,0.5171,2017-03-20 18:56:07:305
4.616,6.924,0.6081,2017-03-20 18:56:07:314
4.3574,6.9528,0.5076,2017-03-20 18:56:07:325
4.3574,6.9528,0.5076,2017-03-20 18:56:07:335
4.3574,6.9528,0.5076,2017-03-20 18:56:07:345
4.0127,7.2449,0.4022,2017-03-20 18:56:07:355
4.0127,7.2449,0.4022,2017-03-20 18:56:07:365
4.0127,7.2449,0.4022,2017-03-20 18:56:07:375
4.6591,7.8003,0.2729,2017-03-20 18:56:07:385
4.6591,7.8003,0.2729,2017-03-20 18:56:07:395
4.6591,7.8003,0.2729,2017-03-20 18:56:07:405
4.8028,8.2839,-0.067,2017-03-20 18:56:07:415
3.5769,8.5377,-3.2657,2017-03-20 18:56:07:424
3.5769,8.5377,-3.2657,2017-03-20 18:56:07:435
5.1954,8.5377,1.2019,2017-03-20 18:56:07:445
4.5633,8.9304,2.8252,2017-03-20 18:56:07:455
4.5633,8.9304,2.8252,2017-03-20 18:56:07:465
3.3806,9.3518,0.4741,2017-03-20 18:56:07:474
3.3806,9.3518,0.4741,2017-03-20 18:56:07:484
3.8738,9.2081,-1.968,2017-03-20 18:56:07:494
3.8738,9.2081,-1.968,2017-03-20 18:56:07:504
5.0039,9.1219,-1.2594,2017-03-20 18:56:07:516
3.8259,9.1315,0.182,2017-03-20 18:56:07:525
3.8259,9.1315,0.182,2017-03-20 18:56:07:535
3.644,9.2464,1.1684,2017-03-20 18:56:07:545
3.644,9.2464,1.1684,2017-03-20 18:56:07:555
5.8179,8.4755,-0.3926,2017-03-20 18:56:07:565
5.7557,8.5665,-0.0766,2017-03-20 18:56:07:574
5.7557,8.5665,-0.0766,2017-03-20 18:56:07:584
5.5402,9.0022,-0.1197,2017-03-20 18:56:07:594
5.5402,9.0022,-0.1197,2017-03-20 18:56:07:605
5.6264,9.5193,0.7326,2017-03-20 18:56:07:614
5.6264,9.5193,0.7326,2017-03-20 18:56:07:625
5.1763,9.5289,1.6759,2017-03-20 18:56:07:635
5.1763,9.5289,1.6759,2017-03-20 18:56:07:645
5.1763,9.5289,1.6759,2017-03-20 18:56:07:654
4.367,9.8545,1.8723,2017-03-20 18:56:07:664
4.367,9.8545,1.8723,2017-03-20 18:56:07:674
4.6256,10.1849,1.5371,2017-03-20 18:56:07:684
5.2241,10.7069,1.0726,2017-03-20 18:56:07:694
5.2241,10.7069,1.0726,2017-03-20 18:56:07:704
5.3151,10.9463,0.8763,2017-03-20 18:56:07:714
5.3151,10.9463,0.8763,2017-03-20 18:56:07:725
6.1052,12.0045,0.8092,2017-03-20 18:56:07:735
6.9192,13.4746,2.0159,2017-03-20 18:56:07:745
6.9192,13.4746,2.0159,2017-03-20 18:56:07:754
6.4883,14.03,2.5139,2017-03-20 18:56:07:765
6.4883,14.03,2.5139,2017-03-20 18:56:07:774
5.5019,14.8584,-2.2362,2017-03-20 18:56:07:785
5.5019,14.8584,-2.2362,2017-03-20 18:56:07:794
6.8426,11.8944,-6.6224,2017-03-20 18:56:07:805
5.5641,11.2958,4.3958,2017-03-20 18:56:07:815
5.5641,11.2958,4.3958,2017-03-20 18:56:07:825
5.3726,10.5441,-0.0814,2017-03-20 18:56:07:835
5.3726,10.5441,-0.0814,2017-03-20 18:56:07:844
6.3159,9.7157,-3.7014,2017-03-20 18:56:07:855
5.047,9.8976,-1.9345,2017-03-20 18:56:07:865
5.047,9.8976,-1.9345,2017-03-20 18:56:07:874
5.047,9.8976,-1.9345,2017-03-20 18:56:07:884
5.047,9.8976,-1.9345,2017-03-20 18:56:07:894
3.7014,8.4132,1.719,2017-03-20 18:56:07:905
3.7014,8.4132,1.719,2017-03-20 18:56:07:915
4.2617,6.6702,1.0056,2017-03-20 18:56:07:924
4.2617,6.6702,1.0056,2017-03-20 18:56:07:934
6.1435,6.1148,0.1963,2017-03-20 18:56:07:944
6.1435,6.1148,0.1963,2017-03-20 18:56:07:954
5.8802,6.8666,0.0527,2017-03-20 18:56:07:964
5.8802,6.8666,0.0527,2017-03-20 18:56:07:974
7.106,7.9727,-2.1644,2017-03-20 18:56:07:984
7.106,7.9727,-2.1644,2017-03-20 18:56:07:994
5.9759,9.2512,-4.865,2017-03-20 18:56:08:004
5.9759,9.2512,-4.865,2017-03-20 18:56:08:014
6.1004,7.5226,5.6216,2017-03-20 18:56:08:026
6.1004,7.5226,5.6216,2017-03-20 18:56:08:035
4.2521,6.6942,4.8842,2017-03-20 18:56:08:045
4.2521,6.6942,4.8842,2017-03-20 18:56:08:055
3.2801,7.8338,-1.9106,2017-03-20 18:56:08:065
4.2329,7.4029,-3.1747,2017-03-20 18:56:08:076
4.2329,7.4029,-3.1747,2017-03-20 18:56:08:085
4.4389,6.6798,-1.7238,2017-03-20 18:56:08:095
4.4389,6.6798,-1.7238,2017-03-20 18:56:08:105
3.6296,6.7038,-2.1596,2017-03-20 18:56:08:114
3.6296,6.7038,-2.1596,2017-03-20 18:56:08:125
2.5235,7.3694,0.1676,2017-03-20 18:56:08:135
2.5235,7.3694,0.1676,2017-03-20 18:56:08:145
3.1268,7.3598,2.1165,2017-03-20 18:56:08:155
3.1268,7.3598,2.1165,2017-03-20 18:56:08:165
3.5195,6.9623,1.8196,2017-03-20 18:56:08:174
3.5195,6.9623,1.8196,2017-03-20 18:56:08:184
4.8507,6.2968,1.312,2017-03-20 18:56:08:194
4.8507,6.2968,1.312,2017-03-20 18:56:08:204
6.3255,5.1475,1.0534,2017-03-20 18:56:08:214
6.3255,5.1475,1.0534,2017-03-20 18:56:08:225
6.7995,4.3383,0.9146,2017-03-20 18:56:08:236
6.7995,4.3383,0.9146,2017-03-20 18:56:08:245
5.6072,4.3431,1.0774,2017-03-20 18:56:08:255
5.6072,4.3431,1.0774,2017-03-20 18:56:08:265
4.3862,4.4293,1.0582,2017-03-20 18:56:08:275
4.3862,4.4293,1.0582,2017-03-20 18:56:08:285
3.62,4.142,1.336,2017-03-20 18:56:08:295
3.62,4.142,1.336,2017-03-20 18:56:08:305
4.6687,3.4429,0.7661,2017-03-20 18:56:08:315
4.6687,3.4429,0.7661,2017-03-20 18:56:08:325
5.4444,3.5434,0.9385,2017-03-20 18:56:08:335
5.4444,3.5434,0.9385,2017-03-20 18:56:08:345
6.4117,4.0749,0.9098,2017-03-20 18:56:08:355
6.4117,4.0749,0.9098,2017-03-20 18:56:08:365
6.4117,4.0749,0.9098,2017-03-20 18:56:08:374
7.3023,4.7645,-0.0144,2017-03-20 18:56:08:384
7.3023,4.7645,-0.0144,2017-03-20 18:56:08:394
8.4994,6.1387,0.8092,2017-03-20 18:56:08:404
10.3046,11.0373,6.517,2017-03-20 18:56:08:414
10.3046,11.0373,6.517,2017-03-20 18:56:08:425
10.3046,11.0373,6.517,2017-03-20 18:56:08:434
12.7467,15.117,3.2657,2017-03-20 18:56:08:445
11.4587,16.8791,-3.1939,2017-03-20 18:56:08:455
11.4587,16.8791,-3.1939,2017-03-20 18:56:08:465
11.4587,16.8791,-3.1939,2017-03-20 18:56:08:475
6.6463,12.6127,2.1021,2017-03-20 18:56:08:485
6.6463,12.6127,2.1021,2017-03-20 18:56:08:495
3.1508,8.8538,1.3503,2017-03-20 18:56:08:504
3.1508,8.8538,1.3503,2017-03-20 18:56:08:514
3.6152,6.7756,0.9625,2017-03-20 18:56:08:524
3.6152,6.7756,0.9625,2017-03-20 18:56:08:534
6.3015,7.2353,1.087,2017-03-20 18:56:08:544
6.5553,9.1459,1.0391,2017-03-20 18:56:08:554
6.5553,9.1459,1.0391,2017-03-20 18:56:08:564
5.9328,10.2855,0.3256,2017-03-20 18:56:08:575
5.9328,10.2855,0.3256,2017-03-20 18:56:08:584
4.2138,9.5385,1.7669,2017-03-20 18:56:08:595
4.2138,9.5385,1.7669,2017-03-20 18:56:08:605
3.7924,9.3182,2.3511,2017-03-20 18:56:08:614
3.7924,9.3182,2.3511,2017-03-20 18:56:08:624
4.2808,8.8873,1.7047,2017-03-20 18:56:08:634
4.2808,8.8873,1.7047,2017-03-20 18:56:08:644
4.4484,8.6383,0.7614,2017-03-20 18:56:08:655
4.4484,8.6383,0.7614,2017-03-20 18:56:08:665
4.4101,8.6383,0.3783,2017-03-20 18:56:08:675
4.3479,8.6,0.34,2017-03-20 18:56:08:684
4.3479,8.6,0.34,2017-03-20 18:56:08:694
4.3862,8.0972,0.2682,2017-03-20 18:56:08:705
4.4819,7.6854,0.1724,2017-03-20 18:56:08:715
4.4819,7.6854,0.1724,2017-03-20 18:56:08:725
4.6687,7.173,-0.0096,2017-03-20 18:56:08:735
4.6448,6.4835,-0.3926,2017-03-20 18:56:08:747
4.6448,6.4835,-0.3926,2017-03-20 18:56:08:754
4.6639,5.9951,-0.4118,2017-03-20 18:56:08:765
4.6639,5.9951,-0.4118,2017-03-20 18:56:08:775
4.8219,5.8658,-0.067,2017-03-20 18:56:08:785
4.8219,5.8658,-0.067,2017-03-20 18:56:08:795
4.8267,5.9664,0.2873,2017-03-20 18:56:08:804
4.8267,5.9664,0.2873,2017-03-20 18:56:08:814
4.8267,5.9664,0.2873,2017-03-20 18:56:08:824
4.7788,6.2872,0.4357,2017-03-20 18:56:08:837
4.6256,6.6319,0.4453,2017-03-20 18:56:08:844
4.6256,6.6319,0.4453,2017-03-20 18:56:08:854
4.7501,6.8666,-0.0144,2017-03-20 18:56:08:864
4.7501,6.8666,-0.0144,2017-03-20 18:56:08:874
5.2241,7.3646,-0.316,2017-03-20 18:56:08:884
5.3199,7.6471,-0.249,2017-03-20 18:56:08:895
5.3199,7.6471,-0.249,2017-03-20 18:56:08:905
5.4875,7.8434,-0.3639,2017-03-20 18:56:08:915
5.7078,7.8482,-0.2825,2017-03-20 18:56:08:924
5.7078,7.8482,-0.2825,2017-03-20 18:56:08:934
5.5067,7.9871,0.5938,2017-03-20 18:56:08:944
5.5067,7.9871,0.5938,2017-03-20 18:56:08:956
5.5067,7.9871,0.5938,2017-03-20 18:56:08:964
4.2713,8.1594,0.7614,2017-03-20 18:56:08:974
4.2713,8.1594,0.7614,2017-03-20 18:56:08:984
4.4724,8.7245,-1.0726,2017-03-20 18:56:08:995
4.6878,9.5529,3.5626,2017-03-20 18:56:09:005
4.6878,9.5529,3.5626,2017-03-20 18:56:09:014
3.4477,10.0221,1.245,2017-03-20 18:56:09:024
3.4477,10.0221,1.245,2017-03-20 18:56:09:034
2.8347,11.1282,-1.0056,2017-03-20 18:56:09:044
2.8347,11.1282,-1.0056,2017-03-20 18:56:09:055
4.9033,8.9878,-0.7422,2017-03-20 18:56:09:065
4.9033,8.9878,-0.7422,2017-03-20 18:56:09:074
5.2529,8.0972,-0.4549,2017-03-20 18:56:09:085
5.0996,8.4084,-1.2402,2017-03-20 18:56:09:095
5.0996,8.4084,-1.2402,2017-03-20 18:56:09:105
5.4779,9.1602,-0.6416,2017-03-20 18:56:09:114
5.4779,9.1602,-0.6416,2017-03-20 18:56:09:124
5.047,9.73,2.0638,2017-03-20 18:56:09:134
5.047,9.73,2.0638,2017-03-20 18:56:09:145
4.5011,9.8162,3.7014,2017-03-20 18:56:09:155
4.5011,9.8162,3.7014,2017-03-20 18:56:09:165
4.5633,10.5345,3.2274,2017-03-20 18:56:09:174
4.5633,10.5345,3.2274,2017-03-20 18:56:09:184
5.3008,11.5975,1.8962,2017-03-20 18:56:09:195
5.3008,11.5975,1.8962,2017-03-20 18:56:09:205
6.5122,12.3254,0.5219,2017-03-20 18:56:09:214
6.5122,12.3254,0.5219,2017-03-20 18:56:09:224
6.8522,12.8856,0.4645,2017-03-20 18:56:09:234
6.8522,12.8856,0.4645,2017-03-20 18:56:09:244
6.6559,13.0819,-0.0192,2017-03-20 18:56:09:254
6.6559,13.0819,-0.0192,2017-03-20 18:56:09:264
7.288,13.556,-3.9169,2017-03-20 18:56:09:274
7.288,13.556,-3.9169,2017-03-20 18:56:09:284
5.8945,12.378,7.3646,2017-03-20 18:56:09:295
5.8945,12.378,7.3646,2017-03-20 18:56:09:304
7.6471,9.8833,-4.9704,2017-03-20 18:56:09:314
7.1778,9.8737,-4.8554,2017-03-20 18:56:09:325
7.1778,9.8737,-4.8554,2017-03-20 18:56:09:335
5.2433,10.1035,-1.47,2017-03-20 18:56:09:345
5.2433,10.1035,-1.47,2017-03-20 18:56:09:355
4.8267,9.2177,1.2641,2017-03-20 18:56:09:365
4.8267,9.2177,1.2641,2017-03-20 18:56:09:375
3.3902,7.7572,1.3264,2017-03-20 18:56:09:385
3.3902,7.7572,1.3264,2017-03-20 18:56:09:395
3.3519,7.1299,0.656,2017-03-20 18:56:09:405
3.3519,7.1299,0.656,2017-03-20 18:56:09:414
3.3519,7.1299,0.656,2017-03-20 18:56:09:424
4.8507,6.6942,0.3879,2017-03-20 18:56:09:435
5.8275,7.3694,0.5602,2017-03-20 18:56:09:444
5.8275,7.3694,0.5602,2017-03-20 18:56:09:455
5.7221,8.078,0.838,2017-03-20 18:56:09:465
5.6455,9.414,-1.5179,2017-03-20 18:56:09:475
5.6455,9.414,-1.5179,2017-03-20 18:56:09:485
5.6455,9.414,-1.5179,2017-03-20 18:56:09:494
6.0478,8.9016,-1.1827,2017-03-20 18:56:09:505
6.0478,8.9016,-1.1827,2017-03-20 18:56:09:515
5.3965,8.3558,1.1588,2017-03-20 18:56:09:524
5.3965,8.3558,1.1588,2017-03-20 18:56:09:534
5.0518,7.8865,1.8387,2017-03-20 18:56:09:545
4.1372,7.7333,0.838,2017-03-20 18:56:09:554
4.1372,7.7333,0.838,2017-03-20 18:56:09:565
3.3471,7.264,-1.7334,2017-03-20 18:56:09:575
3.3471,7.264,-1.7334,2017-03-20 18:56:09:585
2.7677,6.79,-1.8244,2017-03-20 18:56:09:594
2.7677,6.79,-1.8244,2017-03-20 18:56:09:604
2.9257,6.5697,0.2921,2017-03-20 18:56:09:615
2.9257,6.5697,0.2921,2017-03-20 18:56:09:625
3.2848,6.4643,1.81,2017-03-20 18:56:09:635
3.4285,6.3351,1.6376,2017-03-20 18:56:09:647
3.4285,6.3351,1.6376,2017-03-20 18:56:09:655
3.8738,5.8802,1.2019,2017-03-20 18:56:09:664
3.8738,5.8802,1.2019,2017-03-20 18:56:09:675
5.2098,4.5777,1.3072,2017-03-20 18:56:09:684
5.2098,4.5777,1.3072,2017-03-20 18:56:09:694
6.6559,3.7397,1.3264,2017-03-20 18:56:09:704
6.6559,3.7397,1.3264,2017-03-20 18:56:09:714
7.6998,3.7493,0.656,2017-03-20 18:56:09:724
7.6998,3.7493,0.656,2017-03-20 18:56:09:735
6.5649,4.2138,0.3974,2017-03-20 18:56:09:745
5.8993,3.8499,0.8619,2017-03-20 18:56:09:755
5.8993,3.8499,0.8619,2017-03-20 18:56:09:764
4.0941,2.9736,1.0582,2017-03-20 18:56:09:775
4.0941,2.9736,1.0582,2017-03-20 18:56:09:785
3.1029,1.8723,0.838,2017-03-20 18:56:09:795
3.1029,1.8723,0.838,2017-03-20 18:56:09:804
3.1939,1.2498,0.5507,2017-03-20 18:56:09:815
3.1939,1.2498,0.5507,2017-03-20 18:56:09:825
4.7693,2.1404,0.838,2017-03-20 18:56:09:834
4.7693,2.1404,0.838,2017-03-20 18:56:09:844
7.0725,3.5721,0.2442,2017-03-20 18:56:09:855
7.0725,3.5721,0.2442,2017-03-20 18:56:09:865
7.9535,4.8794,-0.6321,2017-03-20 18:56:09:875
7.9535,4.8794,-0.6321,2017-03-20 18:56:09:884
7.9009,5.8466,1.9489,2017-03-20 18:56:09:894
7.9009,5.8466,1.9489,2017-03-20 18:56:09:906
10.3477,10.6686,7.6998,2017-03-20 18:56:09:915
10.3477,10.6686,7.6998,2017-03-20 18:56:09:925
13.7092,17.6836,1.336,2017-03-20 18:56:09:935
13.7092,17.6836,1.336,2017-03-20 18:56:09:944
15.7012,23.7696,0.1053,2017-03-20 18:56:09:955
12.5887,21.3036,0.2203,2017-03-20 18:56:09:965
12.5887,21.3036,0.2203,2017-03-20 18:56:09:974
6.2632,7.1491,-1.9776,2017-03-20 18:56:09:984
6.2632,7.1491,-1.9776,2017-03-20 18:56:09:994
2.9353,3.7493,-0.2107,2017-03-20 18:56:10:004
2.9353,3.7493,-0.2107,2017-03-20 18:56:10:015
2.0925,3.6248,1.4461,2017-03-20 18:56:10:025
2.0925,3.6248,1.4461,2017-03-20 18:56:10:035
3.4237,6.6176,1.5754,2017-03-20 18:56:10:044
3.4237,6.6176,1.5754,2017-03-20 18:56:10:055
3.3998,10.228,1.1396,2017-03-20 18:56:10:064
5.9233,11.8513,0.0575,2017-03-20 18:56:10:075
5.9233,11.8513,0.0575,2017-03-20 18:56:10:085
4.2808,9.4092,1.2737,2017-03-20 18:56:10:094
4.2808,9.4092,1.2737,2017-03-20 18:56:10:104
2.7438,8.9447,2.9544,2017-03-20 18:56:10:115
3.4477,8.8346,2.9449,2017-03-20 18:56:10:125
3.4477,8.8346,2.9449,2017-03-20 18:56:10:135
4.7932,9.3757,2.3176,2017-03-20 18:56:10:145
4.7932,9.3757,2.3176,2017-03-20 18:56:10:155
5.0996,10.3238,1.4605,2017-03-20 18:56:10:164
5.0996,10.3238,1.4605,2017-03-20 18:56:10:175
5.0422,10.1945,-0.1149,2017-03-20 18:56:10:185
5.0422,10.1945,-0.1149,2017-03-20 18:56:10:195
5.047,9.5768,-0.9194,2017-03-20 18:56:10:205
5.047,9.5768,-0.9194,2017-03-20 18:56:10:215
4.5059,8.078,-1.3551,2017-03-20 18:56:10:224
4.5059,8.078,-1.3551,2017-03-20 18:56:10:234
4.5777,6.9288,-0.7183,2017-03-20 18:56:10:244
4.5777,6.9288,-0.7183,2017-03-20 18:56:10:255
4.6974,6.0861,-0.4357,2017-03-20 18:56:10:265
4.6974,6.0861,-0.4357,2017-03-20 18:56:10:275
4.4724,5.8275,0.0335,2017-03-20 18:56:10:285
4.4293,5.7174,0.091,2017-03-20 18:56:10:295
4.4293,5.7174,0.091,2017-03-20 18:56:10:305
4.7836,5.679,0.3496,2017-03-20 18:56:10:315
4.7836,5.679,0.3496,2017-03-20 18:56:10:325
4.889,6.0525,0.3448,2017-03-20 18:56:10:335
4.889,6.0525,0.3448,2017-03-20 18:56:10:345
4.7884,6.6032,0.0575,2017-03-20 18:56:10:354
4.5442,6.7421,-0.0958,2017-03-20 18:56:10:364
4.5442,6.7421,-0.0958,2017-03-20 18:56:10:375
4.3622,6.9576,-0.3687,2017-03-20 18:56:10:385
4.3622,6.9576,-0.3687,2017-03-20 18:56:10:395
5.0374,7.4986,-0.1963,2017-03-20 18:56:10:404
5.0374,7.4986,-0.1963,2017-03-20 18:56:10:414
5.2433,7.8195,0.0335,2017-03-20 18:56:10:425
5.2433,7.8195,0.0335,2017-03-20 18:56:10:436
3.4524,8.6335,-2.0925,2017-03-20 18:56:10:445
3.4524,8.6335,-2.0925,2017-03-20 18:56:10:454
4.7597,8.576,-2.3942,2017-03-20 18:56:10:465
4.7597,8.576,-2.3942,2017-03-20 18:56:10:475
5.1858,9.5337,4.1611,2017-03-20 18:56:10:485
5.1858,9.5337,4.1611,2017-03-20 18:56:10:495
2.9928,9.912,1.81,2017-03-20 18:56:10:505
3.4477,9.8497,-3.2753,2017-03-20 18:56:10:515
3.4477,9.8497,-3.2753,2017-03-20 18:56:10:525
5.4779,10.0078,-1.3072,2017-03-20 18:56:10:535
5.4779,10.0078,-1.3072,2017-03-20 18:56:10:545
4.1611,10.3382,1.0774,2017-03-20 18:56:10:555
4.1611,10.3382,1.0774,2017-03-20 18:56:10:565
4.6448,9.5529,1.4174,2017-03-20 18:56:10:575
4.6448,9.5529,1.4174,2017-03-20 18:56:10:585
5.1523,10.228,-1.1205,2017-03-20 18:56:10:595
5.5641,10.6159,-0.1724,2017-03-20 18:56:10:604
5.5641,10.6159,-0.1724,2017-03-20 18:56:10:615
5.7365,10.9128,2.1787,2017-03-20 18:56:10:624
5.6024,11.2527,2.7485,2017-03-20 18:56:10:636
5.6024,11.2527,2.7485,2017-03-20 18:56:10:645
5.2577,11.5831,2.624,2017-03-20 18:56:10:655
5.1763,12.2775,1.3072,2017-03-20 18:56:10:664
5.1763,12.2775,1.3072,2017-03-20 18:56:10:674
5.5833,13.0101,0.6464,2017-03-20 18:56:10:685
5.5833,13.0101,0.6464,2017-03-20 18:56:10:694
5.5833,13.0101,0.6464,2017-03-20 18:56:10:705
5.0087,13.2591,0.1484,2017-03-20 18:56:10:715
5.0087,13.2591,0.1484,2017-03-20 18:56:10:724
4.3191,11.7843,-4.3958,2017-03-20 18:56:10:735
4.3191,11.7843,-4.3958,2017-03-20 18:56:10:744
4.0654,10.3621,3.893,2017-03-20 18:56:10:754
4.0654,10.3621,3.893,2017-03-20 18:56:10:764
5.6551,9.1746,-2.7773,2017-03-20 18:56:10:775
5.114,9.4906,-0.8332,2017-03-20 18:56:10:785
5.114,9.4906,-0.8332,2017-03-20 18:56:10:795
4.3048,9.2512,0.4118,2017-03-20 18:56:10:805
3.6727,8.5234,0.2011,2017-03-20 18:56:10:815
3.6727,8.5234,0.2011,2017-03-20 18:56:10:825
3.644,8.5569,0.1484,2017-03-20 18:56:10:834
3.644,8.5569,0.1484,2017-03-20 18:56:10:845
5.2433,8.0732,0.431,2017-03-20 18:56:10:854
6.0047,7.8865,0.7183,2017-03-20 18:56:10:864
6.0047,7.8865,0.7183,2017-03-20 18:56:10:874
5.0278,8.6622,0.6273,2017-03-20 18:56:10:884
4.6974,9.2512,-0.407,2017-03-20 18:56:10:894
4.6974,9.2512,-0.407,2017-03-20 18:56:10:904
6.4931,8.3653,-0.7661,2017-03-20 18:56:10:914
6.4931,8.3653,-0.7661,2017-03-20 18:56:10:925
5.6072,7.8147,2.3846,2017-03-20 18:56:10:935
5.6072,7.8147,2.3846,2017-03-20 18:56:10:947
5.6934,7.3694,2.1739,2017-03-20 18:56:10:955
5.6934,7.3694,2.1739,2017-03-20 18:56:10:965
5.7988,8.1307,-1.5754,2017-03-20 18:56:10:975
5.7988,8.1307,-1.5754,2017-03-20 18:56:10:984
5.5737,8.5186,-2.7964,2017-03-20 18:56:10:995
5.5737,8.5186,-2.7964,2017-03-20 18:56:11:005
4.9081,7.7668,-0.0383,2017-03-20 18:56:11:015
4.9081,7.7668,-0.0383,2017-03-20 18:56:11:025
4.9081,7.7668,-0.0383,2017-03-20 18:56:11:035
3.802,7.7764,0.68,2017-03-20 18:56:11:044
3.5051,7.6519,0.8523,2017-03-20 18:56:11:055
3.5051,7.6519,0.8523,2017-03-20 18:56:11:065
4.0462,7.2544,1.312,2017-03-20 18:56:11:074
4.0462,7.2544,1.312,2017-03-20 18:56:11:084
4.5059,6.3398,1.8052,2017-03-20 18:56:11:094
4.5059,6.3398,1.8052,2017-03-20 18:56:11:105
4.7022,5.0901,1.6616,2017-03-20 18:56:11:115
4.6591,4.5538,1.3551,2017-03-20 18:56:11:124
4.6591,4.5538,1.3551,2017-03-20 18:56:11:134
5.3582,4.0223,1.1157,2017-03-20 18:56:11:144
5.3582,4.0223,1.1157,2017-03-20 18:56:11:155
5.6503,4.4245,0.8811,2017-03-20 18:56:11:164
5.6503,4.4245,0.8811,2017-03-20 18:56:11:174
4.7884,4.3144,0.9529,2017-03-20 18:56:11:184
4.7884,4.3144,0.9529,2017-03-20 18:56:11:195
4.1563,3.7972,1.8292,2017-03-20 18:56:11:204
4.1563,3.7972,1.8292,2017-03-20 18:56:11:214
2.7533,2.6336,1.0391,2017-03-20 18:56:11:224
2.7533,2.6336,1.0391,2017-03-20 18:56:11:235
2.1979,1.9489,0.7278,2017-03-20 18:56:11:245
2.1979,1.9489,0.7278,2017-03-20 18:56:11:255
3.6105,2.9497,2.2553,2017-03-20 18:56:11:265
3.6105,2.9497,2.2553,2017-03-20 18:56:11:275
5.6407,4.1372,1.719,2017-03-20 18:56:11:285
5.6407,4.1372,1.719,2017-03-20 18:56:11:295
8.0685,5.612,-0.0862,2017-03-20 18:56:11:305
8.0685,5.612,-0.0862,2017-03-20 18:56:11:314
9.0214,6.948,-1.5275,2017-03-20 18:56:11:326
8.8155,7.0629,-0.7374,2017-03-20 18:56:11:335
8.8155,7.0629,-0.7374,2017-03-20 18:56:11:345
8.8155,7.0629,-0.7374,2017-03-20 18:56:11:355
9.6822,8.8346,3.5147,2017-03-20 18:56:11:365
9.6822,8.8346,3.5147,2017-03-20 18:56:11:374
12.2009,13.9869,7.5322,2017-03-20 18:56:11:386
12.2009,13.9869,7.5322,2017-03-20 18:56:11:394
13.125,17.8799,0.7518,2017-03-20 18:56:11:404
13.125,17.8799,0.7518,2017-03-20 18:56:11:415
11.4587,17.4489,-3.1556,2017-03-20 18:56:11:425
11.4587,17.4489,-3.1556,2017-03-20 18:56:11:434
5.7844,9.7348,0.9242,2017-03-20 18:56:11:444
4.1803,7.4555,0.5219,2017-03-20 18:56:11:455
4.1803,7.4555,0.5219,2017-03-20 18:56:11:464
3.2657,4.9081,0.814,2017-03-20 18:56:11:475
3.2657,4.9081,0.814,2017-03-20 18:56:11:485
2.7485,4.9943,1.3695,2017-03-20 18:56:11:495
2.7485,4.9943,1.3695,2017-03-20 18:56:11:505
2.964,7.0629,1.2115,2017-03-20 18:56:11:514
2.964,7.0629,1.2115,2017-03-20 18:56:11:524
3.6823,9.9838,1.0678,2017-03-20 18:56:11:535
4.1563,10.7356,1.1301,2017-03-20 18:56:11:544
4.1563,10.7356,1.1301,2017-03-20 18:56:11:555
4.2425,10.6255,1.3838,2017-03-20 18:56:11:565
4.2425,10.6255,1.3838,2017-03-20 18:56:11:574
4.142,9.5768,1.4796,2017-03-20 18:56:11:585
4.142,9.5768,1.4796,2017-03-20 18:56:11:595
4.0654,9.0788,1.2833,2017-03-20 18:56:11:604
4.0654,9.0788,1.2833,2017-03-20 18:56:11:615
4.4867,8.6718,0.8859,2017-03-20 18:56:11:625
4.6448,8.509,0.6369,2017-03-20 18:56:11:635
4.6448,8.509,0.6369,2017-03-20 18:56:11:645
4.5969,8.2169,0.2586,2017-03-20 18:56:11:655
4.5969,8.2169,0.2586,2017-03-20 18:56:11:664
4.64,7.7381,-0.1101,2017-03-20 18:56:11:674
4.64,7.7381,-0.1101,2017-03-20 18:56:11:684
4.7118,7.3454,-0.2682,2017-03-20 18:56:11:695
4.7118,7.3454,-0.2682,2017-03-20 18:56:11:705
4.8076,7.0533,-0.2059,2017-03-20 18:56:11:714
4.8076,7.0533,-0.2059,2017-03-20 18:56:11:725
4.865,6.8331,-0.0622,2017-03-20 18:56:11:735
4.865,6.8331,-0.0622,2017-03-20 18:56:11:744
4.865,6.8331,-0.0622,2017-03-20 18:56:11:755
4.5346,6.8043,0.1963,2017-03-20 18:56:11:765
4.4676,6.8809,0.316,2017-03-20 18:56:11:774
4.4101,7.0677,0.3591,2017-03-20 18:56:11:785
4.4101,7.0677,0.3591,2017-03-20 18:56:11:795
4.1755,7.4747,0.1772,2017-03-20 18:56:11:805
4.1755,7.4747,0.1772,2017-03-20 18:56:11:814
4.458,7.7859,-0.091,2017-03-20 18:56:11:824
4.458,7.7859,-0.091,2017-03-20 18:56:11:835
5.0805,8.011,-0.1676,2017-03-20 18:56:11:845
5.0805,8.011,-0.1676,2017-03-20 18:56:11:854
5.0518,7.8817,0.5028,2017-03-20 18:56:11:865
5.0518,7.8817,0.5028,2017-03-20 18:56:11:875
4.2617,7.9009,1.0391,2017-03-20 18:56:11:885
3.2561,7.8961,0.8667,2017-03-20 18:56:11:895
3.2561,7.8961,0.8667,2017-03-20 18:56:11:904
3.2561,7.8961,0.8667,2017-03-20 18:56:11:914
2.6432,8.3558,-3.1699,2017-03-20 18:56:11:925
3.5865,9.4475,-0.5363,2017-03-20 18:56:11:935
3.5865,9.4475,-0.5363,2017-03-20 18:56:11:945
1.7334,11.5975,3.8403,2017-03-20 18:56:11:955
1.7334,11.5975,3.8403,2017-03-20 18:56:11:965
1.7334,11.5975,3.8403,2017-03-20 18:56:11:974
2.0782,9.5864,-1.5275,2017-03-20 18:56:11:984
5.7748,8.2169,-1.743,2017-03-20 18:56:11:994
5.7748,8.2169,-1.743,2017-03-20 18:56:12:005
5.2625,8.6718,0.0048,2017-03-20 18:56:12:014
5.2625,8.6718,0.0048,2017-03-20 18:56:12:025
4.9081,9.323,1.3551,2017-03-20 18:56:12:035
4.9081,9.323,1.3551,2017-03-20 18:56:12:045
4.8507,9.7348,2.8204,2017-03-20 18:56:12:055
4.8507,9.7348,2.8204,2017-03-20 18:56:12:064
4.6495,10.477,3.7062,2017-03-20 18:56:12:074
4.6495,10.477,3.7062,2017-03-20 18:56:12:084
4.9799,11.7029,3.2801,2017-03-20 18:56:12:095
4.9799,11.7029,3.2801,2017-03-20 18:56:12:104
6.3494,12.9718,1.3168,2017-03-20 18:56:12:114
7.0006,13.1537,0.8571,2017-03-20 18:56:12:125
7.0006,13.1537,0.8571,2017-03-20 18:56:12:135
6.1196,11.9375,0.9912,2017-03-20 18:56:12:145
6.1196,11.9375,0.9912,2017-03-20 18:56:12:156
4.9847,11.6358,0.2251,2017-03-20 18:56:12:164
4.9847,11.6358,0.2251,2017-03-20 18:56:12:174
5.3534,12.2775,-1.7095,2017-03-20 18:56:12:184
5.3534,12.2775,-1.7095,2017-03-20 18:56:12:194
3.9265,11.4634,1.1492,2017-03-20 18:56:12:204
3.9265,11.4634,1.1492,2017-03-20 18:56:12:215
4.8507,9.9311,-2.8491,2017-03-20 18:56:12:225
5.1523,9.8354,-2.715,2017-03-20 18:56:12:234
5.1523,9.8354,-2.715,2017-03-20 18:56:12:244
5.1523,9.8354,-2.715,2017-03-20 18:56:12:255
5.0422,9.754,-1.3743,2017-03-20 18:56:12:265
4.5586,9.6247,-0.5794,2017-03-20 18:56:12:275
4.5586,9.6247,-0.5794,2017-03-20 18:56:12:284
3.9744,9.7396,1.2163,2017-03-20 18:56:12:294
3.9744,9.7396,1.2163,2017-03-20 18:56:12:304
3.8786,7.9152,1.5323,2017-03-20 18:56:12:314
3.8786,7.9152,1.5323,2017-03-20 18:56:12:324
4.5538,7.6758,0.8332,2017-03-20 18:56:12:334
4.5538,7.6758,0.8332,2017-03-20 18:56:12:344
5.7221,7.4029,0.7566,2017-03-20 18:56:12:354
5.7221,7.4029,0.7566,2017-03-20 18:56:12:364
5.0757,8.078,0.3926,2017-03-20 18:56:12:374
5.0757,8.078,0.3926,2017-03-20 18:56:12:385
4.5633,9.165,0.2969,2017-03-20 18:56:12:395
4.5633,9.165,0.2969,2017-03-20 18:56:12:405
4.6304,10.2137,-0.2251,2017-03-20 18:56:12:415
4.6304,10.2137,-0.2251,2017-03-20 18:56:12:424
5.5737,8.8873,0.4932,2017-03-20 18:56:12:435
5.5737,8.8873,0.4932,2017-03-20 18:56:12:445
5.8897,8.4946,1.5131,2017-03-20 18:56:12:455
5.8897,8.4946,1.5131,2017-03-20 18:56:12:465
5.6455,8.5617,0.091,2017-03-20 18:56:12:475
5.6455,8.5617,0.091,2017-03-20 18:56:12:485
4.8985,8.6814,-1.3168,2017-03-20 18:56:12:495
3.8882,8.6335,-2.4565,2017-03-20 18:56:12:505
3.8882,8.6335,-2.4565,2017-03-20 18:56:12:515
3.984,7.4077,-0.067,2017-03-20 18:56:12:525
3.984,7.4077,-0.067,2017-03-20 18:56:12:534
3.9313,7.0964,1.1492,2017-03-20 18:56:12:545
3.9313,7.0964,1.1492,2017-03-20 18:56:12:554
3.9313,7.0964,1.1492,2017-03-20 18:56:12:564
3.8307,6.6702,1.3024,2017-03-20 18:56:12:574
3.8307,6.6702,1.3024,2017-03-20 18:56:12:584
4.1994,6.1052,1.7861,2017-03-20 18:56:12:595
4.1994,6.1052,1.7861,2017-03-20 18:56:12:605
5.0422,5.2768,2.5618,2017-03-20 18:56:12:615
5.0422,5.2768,2.5618,2017-03-20 18:56:12:625
6.0094,4.4819,1.7095,2017-03-20 18:56:12:634
6.0094,4.4819,1.7095,2017-03-20 18:56:12:646
6.0669,4.1659,-0.3065,2017-03-20 18:56:12:655
6.0669,4.1659,-0.3065,2017-03-20 18:56:12:664
4.9416,3.9313,-0.4166,2017-03-20 18:56:12:675
4.9416,3.9313,-0.4166,2017-03-20 18:56:12:685
3.7493,3.7685,0.6752,2017-03-20 18:56:12:695
3.7493,3.7685,0.6752,2017-03-20 18:56:12:704
3.0071,3.3519,0.7326,2017-03-20 18:56:12:714
3.0071,3.3519,0.7326,2017-03-20 18:56:12:725
2.8299,2.3367,0.5794,2017-03-20 18:56:12:735
3.3184,2.5091,0.6129,2017-03-20 18:56:12:744
3.3184,2.5091,0.6129,2017-03-20 18:56:12:754
4.8219,3.3854,1.1396,2017-03-20 18:56:12:765
4.8219,3.3854,1.1396,2017-03-20 18:56:12:775
7.1251,3.7972,1.2402,2017-03-20 18:56:12:784
7.1251,3.7972,1.2402,2017-03-20 18:56:12:795
8.6383,4.1276,-0.2251,2017-03-20 18:56:12:805
8.6383,4.1276,-0.2251,2017-03-20 18:56:12:814
8.6,4.8411,-1.2402,2017-03-20 18:56:12:825
8.0876,5.1667,-0.3783,2017-03-20 18:56:12:834
8.0876,5.1667,-0.3783,2017-03-20 18:56:12:845
8.1068,5.3199,1.585,2017-03-20 18:56:12:854
8.1068,5.3199,1.585,2017-03-20 18:56:12:865
9.3134,10.4531,5.2194,2017-03-20 18:56:12:874
9.3134,10.4531,5.2194,2017-03-20 18:56:12:884
12.1625,15.8065,0.6033,2017-03-20 18:56:12:895
12.1625,15.8065,0.6033,2017-03-20 18:56:12:905
13.034,19.2925,1.0774,2017-03-20 18:56:12:915
11.2958,19.6037,0.7805,2017-03-20 18:56:12:926
11.2958,19.6037,0.7805,2017-03-20 18:56:12:934
7.829,10.7212,0.158,2017-03-20 18:56:12:945
7.829,10.7212,0.158,2017-03-20 18:56:12:955
5.3151,7.8673,0.3448,2017-03-20 18:56:12:964
5.3151,7.8673,0.3448,2017-03-20 18:56:12:974
2.873,5.4253,0.1245,2017-03-20 18:56:12:985
2.715,4.9033,0.5076,2017-03-20 18:56:12:995
2.715,4.9033,0.5076,2017-03-20 18:56:13:004
2.4852,5.2194,0.4884,2017-03-20 18:56:13:015
2.2075,7.7572,0.8284,2017-03-20 18:56:13:025
2.2075,7.7572,0.8284,2017-03-20 18:56:13:034
3.371,10.7356,1.719,2017-03-20 18:56:13:045
3.371,10.7356,1.719,2017-03-20 18:56:13:054
4.9273,12.1865,2.2936,2017-03-20 18:56:13:065
4.9273,12.1865,2.2936,2017-03-20 18:56:13:074
5.521,11.4922,1.7047,2017-03-20 18:56:13:085
5.521,11.4922,1.7047,2017-03-20 18:56:13:095
4.6783,9.6965,0.6512,2017-03-20 18:56:13:105
4.6783,9.6965,0.6512,2017-03-20 18:56:13:115
4.6687,8.6479,0.316,2017-03-20 18:56:13:124
4.6687,8.6479,0.316,2017-03-20 18:56:13:135
4.6687,8.6479,0.316,2017-03-20 18:56:13:146
4.9512,7.7428,0.2155,2017-03-20 18:56:13:155
4.9512,7.7428,0.2155,2017-03-20 18:56:13:165
4.9943,7.2975,0.2969,2017-03-20 18:56:13:177
4.8698,7.1108,0.2298,2017-03-20 18:56:13:185
4.8698,7.1108,0.2298,2017-03-20 18:56:13:195
4.8267,7.0964,-0.0144,2017-03-20 18:56:13:205
4.8267,7.0964,-0.0144,2017-03-20 18:56:13:215
4.9081,7.1108,-0.1867,2017-03-20 18:56:13:225
4.9081,7.1108,-0.1867,2017-03-20 18:56:13:235
4.7693,7.0246,-0.3208,2017-03-20 18:56:13:244
4.7693,7.0246,-0.3208,2017-03-20 18:56:13:254
4.4676,6.8953,-0.3352,2017-03-20 18:56:13:265
4.4676,6.8953,-0.3352,2017-03-20 18:56:13:275
4.3718,6.6559,-0.1293,2017-03-20 18:56:13:285
4.3718,6.6559,-0.1293,2017-03-20 18:56:13:294
3.8499,6.4739,0.0622,2017-03-20 18:56:13:304
3.8499,6.4739,0.0622,2017-03-20 18:56:13:314
3.7493,6.5218,0.3879,2017-03-20 18:56:13:325
3.7493,6.5218,0.3879,2017-03-20 18:56:13:335
4.3144,6.3111,1.0008,2017-03-20 18:56:13:345
4.3144,6.3111,1.0008,2017-03-20 18:56:13:355
4.7022,7.106,2.49,2017-03-20 18:56:13:364
4.7022,7.106,2.49,2017-03-20 18:56:13:374
3.5769,8.0924,2.8347,2017-03-20 18:56:13:385
3.5769,8.0924,2.8347,2017-03-20 18:56:13:394
1.7813,9.5146,-3.6536,2017-03-20 18:56:13:405
1.1109,10.5201,-8.8155,2017-03-20 18:56:13:415
1.1109,10.5201,-8.8155,2017-03-20 18:56:13:425
5.5641,12.6797,9.4571,2017-03-20 18:56:13:434
5.5641,12.6797,9.4571,2017-03-20 18:56:13:444
1.2546,11.6071,-0.4262,2017-03-20 18:56:13:455
1.2546,11.6071,-0.4262,2017-03-20 18:56:13:464
7.1587,7.9775,-2.9736,2017-03-20 18:56:13:474
7.1587,7.9775,-2.9736,2017-03-20 18:56:13:484
4.3622,8.2648,0.0622,2017-03-20 18:56:13:495
4.3622,8.2648,0.0622,2017-03-20 18:56:13:504
4.6926,8.8729,1.0104,2017-03-20 18:56:13:514
4.6926,8.8729,1.0104,2017-03-20 18:56:13:525
4.64,9.9599,1.9489,2017-03-20 18:56:13:535
4.64,9.9599,1.9489,2017-03-20 18:56:13:544
4.4245,10.2232,3.7493,2017-03-20 18:56:13:555
4.209,10.5632,3.7254,2017-03-20 18:56:13:565
4.209,10.5632,3.7254,2017-03-20 18:56:13:574
4.3,11.224,2.9688,2017-03-20 18:56:13:585
4.3,11.224,2.9688,2017-03-20 18:56:13:594
4.5969,11.9997,0.3256,2017-03-20 18:56:13:605
4.5969,11.9997,0.3256,2017-03-20 18:56:13:615
5.6168,12.2583,0.6369,2017-03-20 18:56:13:625
5.6168,12.2583,0.6369,2017-03-20 18:56:13:635
4.7932,11.6646,0.9433,2017-03-20 18:56:13:645
4.7932,11.6646,0.9433,2017-03-20 18:56:13:655
5.0039,11.2767,-0.4597,2017-03-20 18:56:13:665
5.0039,11.2767,-0.4597,2017-03-20 18:56:13:675
5.4444,11.5257,-0.6033,2017-03-20 18:56:13:684
5.794,10.4435,-0.9529,2017-03-20 18:56:13:697
5.794,10.4435,-0.9529,2017-03-20 18:56:13:705
5.794,10.4435,-0.9529,2017-03-20 18:56:13:715
5.7461,9.4954,-3.0263,2017-03-20 18:56:13:724
5.7461,9.4954,-3.0263,2017-03-20 18:56:13:735
5.4348,9.7157,-2.4804,2017-03-20 18:56:13:744
5.4348,9.7157,-2.4804,2017-03-20 18:56:13:754
4.4772,9.9264,0.2059,2017-03-20 18:56:13:765
4.4772,9.9264,0.2059,2017-03-20 18:56:13:774
3.5434,9.7348,2.466,2017-03-20 18:56:13:784
3.5434,9.7348,2.466,2017-03-20 18:56:13:795
3.8834,7.9296,1.3695,2017-03-20 18:56:13:805
3.8834,7.9296,1.3695,2017-03-20 18:56:13:814
4.0031,7.1012,0.3974,2017-03-20 18:56:13:824
4.3814,7.3933,0.1437,2017-03-20 18:56:13:835
4.3814,7.3933,0.1437,2017-03-20 18:56:13:845
5.8849,7.604,-0.2777,2017-03-20 18:56:13:854
5.8849,7.604,-0.2777,2017-03-20 18:56:13:864
5.9185,8.5042,-0.34,2017-03-20 18:56:13:875
5.9185,8.5042,-0.34,2017-03-20 18:56:13:884
6.5362,9.9886,-0.7087,2017-03-20 18:56:13:895
6.5362,9.9886,-0.7087,2017-03-20 18:56:13:904
6.9336,10.4483,-2.6528,2017-03-20 18:56:13:915
6.9336,10.4483,-2.6528,2017-03-20 18:56:13:924
6.2345,8.9256,4.367,2017-03-20 18:56:13:934
5.5306,8.7532,3.5434,2017-03-20 18:56:13:944
5.5306,8.7532,3.5434,2017-03-20 18:56:13:955
4.8554,8.9447,-3.237,2017-03-20 18:56:13:964
4.8554,8.9447,-3.237,2017-03-20 18:56:13:975
5.3295,8.7532,-4.118,2017-03-20 18:56:13:985
5.3295,8.7532,-4.118,2017-03-20 18:56:13:996
4.2808,7.92,0.2586,2017-03-20 18:56:14:005
4.2808,7.92,0.2586,2017-03-20 18:56:14:015
3.0215,7.0773,0.0575,2017-03-20 18:56:14:025
3.0215,7.0773,0.0575,2017-03-20 18:56:14:035
3.7206,6.4452,0.4788,2017-03-20 18:56:14:044
3.7206,6.4452,0.4788,2017-03-20 18:56:14:054
4.2186,6.3829,1.1253,2017-03-20 18:56:14:065
4.2186,6.3829,1.1253,2017-03-20 18:56:14:075
4.5921,6.3159,1.6137,2017-03-20 18:56:14:086
4.5921,6.3159,1.6137,2017-03-20 18:56:14:094
4.7166,6.359,1.7909,2017-03-20 18:56:14:105
5.0518,5.9999,1.7478,2017-03-20 18:56:14:115
5.0518,5.9999,1.7478,2017-03-20 18:56:14:126
5.4396,5.545,1.4796,2017-03-20 18:56:14:135
5.4396,5.545,1.4796,2017-03-20 18:56:14:144
5.9951,4.5107,0.4788,2017-03-20 18:56:14:154
5.9951,4.5107,0.4788,2017-03-20 18:56:14:164
5.6407,3.7876,0.1389,2017-03-20 18:56:14:175
4.7884,3.6296,1.0822,2017-03-20 18:56:14:184
4.7884,3.6296,1.0822,2017-03-20 18:56:14:194
4.2282,3.3232,1.0247,2017-03-20 18:56:14:205
4.2282,3.3232,1.0247,2017-03-20 18:56:14:215
3.5674,2.1452,1.1827,2017-03-20 18:56:14:225
3.5674,2.1452,1.1827,2017-03-20 18:56:14:235
2.9449,1.9106,1.1684,2017-03-20 18:56:14:245
2.9449,1.9106,1.1684,2017-03-20 18:56:14:255
4.051,2.8826,1.2977,2017-03-20 18:56:14:265
4.051,2.8826,1.2977,2017-03-20 18:56:14:274
5.9903,3.7828,1.6137,2017-03-20 18:56:14:285
5.9903,3.7828,1.6137,2017-03-20 18:56:14:295
5.9903,3.7828,1.6137,2017-03-20 18:56:14:304
7.4939,4.6974,0.747,2017-03-20 18:56:14:314
7.4939,4.6974,0.747,2017-03-20 18:56:14:324
8.2791,5.6934,-0.1437,2017-03-20 18:56:14:334
8.2791,6.1292,-0.8811,2017-03-20 18:56:14:345
8.5377,6.1292,-0.8811,2017-03-20 18:56:14:355
8.5377,6.1292,-0.8811,2017-03-20 18:56:14:364
9.3422,7.4843,-1.3934,2017-03-20 18:56:14:375
11.6119,8.9399,3.7254,2017-03-20 18:56:14:385
11.6119,8.9399,3.7254,2017-03-20 18:56:14:396
14.0827,12.8377,7.7189,2017-03-20 18:56:14:405
14.0827,12.8377,7.7189,2017-03-20 18:56:14:415
12.9383,13.8241,-1.2115,2017-03-20 18:56:14:425
12.9383,13.8241,-1.2115,2017-03-20 18:56:14:435
8.8585,11.5688,-0.4262,2017-03-20 18:56:14:444
8.8585,11.5688,-0.4262,2017-03-20 18:56:14:455
6.0956,9.2991,0.8428,2017-03-20 18:56:14:465
6.0956,9.2991,0.8428,2017-03-20 18:56:14:475
4.5346,8.3318,1.2546,2017-03-20 18:56:14:485
4.7549,8.3893,1.312,2017-03-20 18:56:14:495
4.7549,8.3893,1.312,2017-03-20 18:56:14:504
6.2345,9.165,0.8811,2017-03-20 18:56:14:515
6.426,9.5481,0.4884,2017-03-20 18:56:14:524
6.426,9.5481,0.4884,2017-03-20 18:56:14:535
5.3439,9.7109,0.9337,2017-03-20 18:56:14:545
5.3439,9.7109,0.9337,2017-03-20 18:56:14:554
3.6775,8.983,1.2977,2017-03-20 18:56:14:565
3.6775,8.983,1.2977,2017-03-20 18:56:14:574
3.2274,8.2073,1.1971,2017-03-20 18:56:14:585
3.2274,8.2073,1.1971,2017-03-20 18:56:14:595
3.3806,7.7189,1.4317,2017-03-20 18:56:14:605
3.3806,7.7189,1.4317,2017-03-20 18:56:14:616
3.8116,7.8099,1.6137,2017-03-20 18:56:14:624
3.8116,7.8099,1.6137,2017-03-20 18:56:14:635
4.5059,8.2073,1.2402,2017-03-20 18:56:14:644
4.6208,8.5521,1.0439,2017-03-20 18:56:14:655
4.6208,8.5521,1.0439,2017-03-20 18:56:14:665
4.6017,8.9016,0.5076,2017-03-20 18:56:14:675
4.5729,9.0261,0.407,2017-03-20 18:56:14:685
4.5729,9.0261,0.407,2017-03-20 18:56:14:694
4.7309,8.6814,0.1628,2017-03-20 18:56:14:705
4.7309,8.6814,0.1628,2017-03-20 18:56:14:715
5.0853,8.2121,-0.4549,2017-03-20 18:56:14:725
5.0853,8.2121,-0.4549,2017-03-20 18:56:14:735
4.956,7.9871,-0.3974,2017-03-20 18:56:14:746
4.956,7.9871,-0.3974,2017-03-20 18:56:14:755
4.5777,7.7428,-0.2346,2017-03-20 18:56:14:764
4.5777,7.7428,-0.2346,2017-03-20 18:56:14:775
4.6304,7.2305,0.1437,2017-03-20 18:56:14:785
4.5969,6.9623,0.2921,2017-03-20 18:56:14:795
4.5969,6.9623,0.2921,2017-03-20 18:56:14:804
4.4676,6.8043,0.6081,2017-03-20 18:56:14:815
4.4676,6.8043,0.6081,2017-03-20 18:56:14:825
4.2952,6.9863,0.6225,2017-03-20 18:56:14:835
4.2952,6.9863,0.6225,2017-03-20 18:56:14:844
4.1755,7.2688,0.5746,2017-03-20 18:56:14:855
4.1755,7.2688,0.5746,2017-03-20 18:56:14:865
4.4197,7.695,0.4405,2017-03-20 18:56:14:874
4.4197,7.695,0.4405,2017-03-20 18:56:14:885
4.7166,8.3414,0.4693,2017-03-20 18:56:14:895
4.7166,8.3414,0.4693,2017-03-20 18:56:14:905
5.138,8.4946,0.5459,2017-03-20 18:56:14:916
5.138,8.4946,0.5459,2017-03-20 18:56:14:925
5.138,8.4946,0.5459,2017-03-20 18:56:14:935
4.549,8.3893,1.1013,2017-03-20 18:56:14:945
4.549,8.3893,1.1013,2017-03-20 18:56:14:955
3.4333,8.4803,-0.5507,2017-03-20 18:56:14:964
2.6384,8.6957,-4.4436,2017-03-20 18:56:14:975
2.6384,8.6957,-4.4436,2017-03-20 18:56:14:984
4.616,8.5425,0.7326,2017-03-20 18:56:14:995
4.616,8.5425,0.7326,2017-03-20 18:56:15:004
3.0981,9.6199,4.2138,2017-03-20 18:56:15:015
0.5746,10.2568,1.5371,2017-03-20 18:56:15:025
0.5746,10.2568,1.5371,2017-03-20 18:56:15:035
5.2577,8.3653,-2.4229,2017-03-20 18:56:15:044
5.3151,7.7237,-0.9002,2017-03-20 18:56:15:056
5.3151,7.7237,-0.9002,2017-03-20 18:56:15:065
4.4149,7.8578,0.0431,2017-03-20 18:56:15:075
4.4149,7.8578,0.0431,2017-03-20 18:56:15:087
5.1188,8.1834,1.1301,2017-03-20 18:56:15:095
5.1188,8.1834,1.1301,2017-03-20 18:56:15:105
4.9895,8.9687,2.4277,2017-03-20 18:56:15:114
4.9895,8.9687,2.4277,2017-03-20 18:56:15:125
4.9656,8.6239,3.1173,2017-03-20 18:56:15:134
4.9656,8.6239,3.1173,2017-03-20 18:56:15:144
5.1475,8.9016,1.6424,2017-03-20 18:56:15:155
5.1811,9.4858,1.0247,2017-03-20 18:56:15:164
5.1811,9.4858,1.0247,2017-03-20 18:56:15:175
5.296,10.6542,0.5267,2017-03-20 18:56:15:184
5.296,10.6542,0.5267,2017-03-20 18:56:15:195
5.4205,11.5975,0.2442,2017-03-20 18:56:15:205
5.4205,11.5975,0.2442,2017-03-20 18:56:15:214
5.9376,11.7603,1.1013,2017-03-20 18:56:15:225
5.9376,11.7603,1.1013,2017-03-20 18:56:15:235
6.0717,12.0333,0.8332,2017-03-20 18:56:15:245
6.0669,12.2104,0.6033,2017-03-20 18:56:15:255
6.0669,12.2104,0.6033,2017-03-20 18:56:15:265
6.1866,12.2392,-0.2155,2017-03-20 18:56:15:275
6.1866,12.2392,-0.2155,2017-03-20 18:56:15:284
7.0437,10.6734,-0.929,2017-03-20 18:56:15:295
7.0437,10.6734,-0.929,2017-03-20 18:56:15:304
6.79,10.1227,0.1101,2017-03-20 18:56:15:315
6.1675,9.6151,1.9154,2017-03-20 18:56:15:324
6.1675,9.6151,1.9154,2017-03-20 18:56:15:335
6.1675,9.6151,1.9154,2017-03-20 18:56:15:345
6.7516,8.8921,-0.4693,2017-03-20 18:56:15:354
5.6407,9.0692,-1.7669,2017-03-20 18:56:15:364
5.6407,9.0692,-1.7669,2017-03-20 18:56:15:374
4.9704,8.8777,-1.992,2017-03-20 18:56:15:385
4.9704,8.8777,-1.992,2017-03-20 18:56:15:395
4.64,8.6383,-0.6081,2017-03-20 18:56:15:405
4.64,8.6383,-0.6081,2017-03-20 18:56:15:415
3.5674,8.5856,1.494,2017-03-20 18:56:15:425
3.5674,8.5856,1.494,2017-03-20 18:56:15:436
3.5674,8.5856,1.494,2017-03-20 18:56:15:444
3.62,8.2121,2.0063,2017-03-20 18:56:15:456
3.6152,8.3031,1.6185,2017-03-20 18:56:15:465
3.6152,8.3031,1.6185,2017-03-20 18:56:15:475
4.0079,8.1786,0.8906,2017-03-20 18:56:15:485
4.8411,8.5856,0.3256,2017-03-20 18:56:15:495
4.8411,8.5856,0.3256,2017-03-20 18:56:15:505
4.9177,8.8729,-0.1149,2017-03-20 18:56:15:515
4.9177,8.8729,-0.1149,2017-03-20 18:56:15:524
4.9608,10.0317,-1.7813,2017-03-20 18:56:15:535
4.9608,10.0317,-1.7813,2017-03-20 18:56:15:545
5.8658,9.7013,-5.4109,2017-03-20 18:56:15:555
5.8658,9.7013,-5.4109,2017-03-20 18:56:15:565
5.5929,8.8538,0.5938,2017-03-20 18:56:15:577
5.0518,8.9016,3.6631,2017-03-20 18:56:15:585
5.0518,8.9016,3.6631,2017-03-20 18:56:15:595
4.5442,8.7149,3.3854,2017-03-20 18:56:15:605
4.5442,8.7149,3.3854,2017-03-20 18:56:15:615
5.9855,8.3414,-1.6041,2017-03-20 18:56:15:625
5.9855,8.3414,-1.6041,2017-03-20 18:56:15:635
6.6415,7.4891,-2.4708,2017-03-20 18:56:15:644
6.6415,7.4891,-2.4708,2017-03-20 18:56:15:655
5.5306,7.0294,-0.7566,2017-03-20 18:56:15:665
5.5306,7.0294,-0.7566,2017-03-20 18:56:15:675
4.2377,7.2784,0.3974,2017-03-20 18:56:15:685
4.2377,7.2784,0.3974,2017-03-20 18:56:15:695
3.8547,7.173,0.9098,2017-03-20 18:56:15:704
3.8547,7.173,0.9098,2017-03-20 18:56:15:715
3.6823,6.3351,0.5842,2017-03-20 18:56:15:725
3.9121,5.8179,0.6512,2017-03-20 18:56:15:735
3.9121,5.8179,0.6512,2017-03-20 18:56:15:744
4.64,5.0566,1.5179,2017-03-20 18:56:15:755
4.64,5.0566,1.5179,2017-03-20 18:56:15:764
5.3199,3.7781,1.2546,2017-03-20 18:56:15:775
5.3199,3.7781,1.2546,2017-03-20 18:56:15:786
5.7557,3.213,0.2873,2017-03-20 18:56:15:794
5.7557,3.213,0.2873,2017-03-20 18:56:15:804
6.1579,3.2513,-0.1006,2017-03-20 18:56:15:815
6.1579,3.2513,-0.1006,2017-03-20 18:56:15:825
4.6352,3.3662,0.2538,2017-03-20 18:56:15:834
3.8451,3.2417,0.3496,2017-03-20 18:56:15:845
3.8451,3.2417,0.3496,2017-03-20 18:56:15:855
3.4812,2.6815,0.589,2017-03-20 18:56:15:864
3.4812,2.6815,0.589,2017-03-20 18:56:15:874
3.8978,2.6671,0.6512,2017-03-20 18:56:15:886
4.5059,2.8108,0.7614,2017-03-20 18:56:15:895
4.5059,2.8108,0.7614,2017-03-20 18:56:15:905
5.9616,3.3423,1.3982,2017-03-20 18:56:15:915
5.9616,3.3423,1.3982,2017-03-20 18:56:15:925
7.2975,4.2138,1.3216,2017-03-20 18:56:15:935
7.2975,4.2138,1.3216,2017-03-20 18:56:15:945
8.6335,5.4157,0.0527,2017-03-20 18:56:15:955
8.6335,5.4157,0.0527,2017-03-20 18:56:15:965
8.6335,5.4157,0.0527,2017-03-20 18:56:15:974
9.3182,6.268,-1.4605,2017-03-20 18:56:15:985
10.1418,6.6367,-1.1349,2017-03-20 18:56:15:995
10.1418,6.6367,-1.1349,2017-03-20 18:56:16:004
12.8425,9.4475,5.3774,2017-03-20 18:56:16:015
12.8425,9.4475,5.3774,2017-03-20 18:56:16:025
12.8425,9.4475,5.3774,2017-03-20 18:56:16:034
14.0013,14.1928,8.6718,2017-03-20 18:56:16:045
13.7762,13.8098,-3.7541,2017-03-20 18:56:16:055
13.7762,13.8098,-3.7541,2017-03-20 18:56:16:065
6.948,9.3853,-3.6392,2017-03-20 18:56:16:075
6.948,9.3853,-3.6392,2017-03-20 18:56:16:084
6.948,9.3853,-3.6392,2017-03-20 18:56:16:094
3.7733,6.7756,0.3639,2017-03-20 18:56:16:105
1.9776,6.8474,2.5714,2017-03-20 18:56:16:115
1.9776,6.8474,2.5714,2017-03-20 18:56:16:124
1.9776,6.8474,2.5714,2017-03-20 18:56:16:134
3.9409,7.9966,3.1843,2017-03-20 18:56:16:145
8.4036,10.9128,1.087,2017-03-20 18:56:16:156
8.4036,10.9128,1.087,2017-03-20 18:56:16:165
8.4036,10.9128,1.087,2017-03-20 18:56:16:174
7.197,11.4922,-0.0766,2017-03-20 18:56:16:185
7.197,11.4922,-0.0766,2017-03-20 18:56:16:195
4.3814,9.5577,0.2921,2017-03-20 18:56:16:205
4.3814,9.5577,0.2921,2017-03-20 18:56:16:214
3.0885,8.8011,1.2641,2017-03-20 18:56:16:224
3.0885,8.8011,1.2641,2017-03-20 18:56:16:234
3.8451,8.7532,1.8483,2017-03-20 18:56:16:245
3.8451,8.7532,1.8483,2017-03-20 18:56:16:255
4.2904,9.7348,2.1596,2017-03-20 18:56:16:264
4.4197,10.3813,2.1165,2017-03-20 18:56:16:275
4.4197,10.3813,2.1165,2017-03-20 18:56:16:285
4.3431,10.7931,1.4509,2017-03-20 18:56:16:295
4.3431,10.7931,1.4509,2017-03-20 18:56:16:304
4.0175,9.6247,0.316,2017-03-20 18:56:16:315
4.0175,9.6247,0.316,2017-03-20 18:56:16:325
3.3615,8.0828,-0.4788,2017-03-20 18:56:16:334
3.3615,8.0828,-0.4788,2017-03-20 18:56:16:344
3.462,6.948,-1.1301,2017-03-20 18:56:16:355
3.7158,6.4979,-1.2354,2017-03-20 18:56:16:364
3.7158,6.4979,-1.2354,2017-03-20 18:56:16:375
4.3622,5.952,-1.1349,2017-03-20 18:56:16:385
4.3622,5.952,-1.1349,2017-03-20 18:56:16:395
5.2194,5.6312,-0.6704,2017-03-20 18:56:16:404
5.5402,5.5019,-0.2442,2017-03-20 18:56:16:414
5.5402,5.5019,-0.2442,2017-03-20 18:56:16:424
5.3439,5.5881,0.3256,2017-03-20 18:56:16:435
5.3439,5.5881,0.3256,2017-03-20 18:56:16:444
5.4731,5.3295,0.7566,2017-03-20 18:56:16:455
5.5785,5.2098,0.6656,2017-03-20 18:56:16:465
5.5785,5.2098,0.6656,2017-03-20 18:56:16:474
5.3199,5.4348,0,2017-03-20 18:56:16:484
5.3199,5.4348,0,2017-03-20 18:56:16:495
3.8882,6.0861,-1.0534,2017-03-20 18:56:16:505
3.8882,6.0861,-1.0534,2017-03-20 18:56:16:515
4.889,6.9145,-1.1444,2017-03-20 18:56:16:524
4.889,6.9145,-1.1444,2017-03-20 18:56:16:535
5.4492,8.169,-0.3639,2017-03-20 18:56:16:545
5.4492,8.169,-0.3639,2017-03-20 18:56:16:555
3.2082,9.912,-3.7397,2017-03-20 18:56:16:565
4.774,10.1035,0.4262,2017-03-20 18:56:16:575
4.774,10.1035,0.4262,2017-03-20 18:56:16:584
4.4819,10.726,5.9664,2017-03-20 18:56:16:595
4.4819,10.726,5.9664,2017-03-20 18:56:16:604
3.4141,10.5489,4.9368,2017-03-20 18:56:16:614
3.735,9.4858,-0.2155,2017-03-20 18:56:16:625
3.735,9.4858,-0.2155,2017-03-20 18:56:16:635
5.1044,9.8019,-2.0399,2017-03-20 18:56:16:645
5.1044,9.8019,-2.0399,2017-03-20 18:56:16:654
5.1044,9.8019,-2.0399,2017-03-20 18:56:16:664
5.6838,9.9264,0.6464,2017-03-20 18:56:16:674
5.6838,9.9264,0.6464,2017-03-20 18:56:16:685
3.5386,9.3948,-0.0287,2017-03-20 18:56:16:695
3.5386,9.3948,-0.0287,2017-03-20 18:56:16:704
3.8211,8.8777,0.0958,2017-03-20 18:56:16:714
3.8211,8.8777,0.0958,2017-03-20 18:56:16:725
4.4053,8.8202,0.091,2017-03-20 18:56:16:735
4.4053,8.8202,0.091,2017-03-20 18:56:16:744
4.1659,9.6199,0.7805,2017-03-20 18:56:16:754
3.9409,10.0748,1.2498,2017-03-20 18:56:16:764
3.9409,10.0748,1.2498,2017-03-20 18:56:16:775
4.391,10.7691,2.2122,2017-03-20 18:56:16:784
4.391,10.7691,2.2122,2017-03-20 18:56:16:794
4.8842,11.6023,3.0598,2017-03-20 18:56:16:805
4.8842,11.6023,3.0598,2017-03-20 18:56:16:815
5.1811,12.5839,2.806,2017-03-20 18:56:16:824
5.1811,12.5839,2.806,2017-03-20 18:56:16:834
6.3734,12.4546,1.403,2017-03-20 18:56:16:845
6.3734,12.4546,1.403,2017-03-20 18:56:16:855
6.8857,11.248,0.182,2017-03-20 18:56:16:864
6.8857,11.248,0.182,2017-03-20 18:56:16:874
6.7804,10.4435,-0.1101,2017-03-20 18:56:16:885
6.1435,10.3908,-0.8763,2017-03-20 18:56:16:894
6.1435,10.3908,-0.8763,2017-03-20 18:56:16:904
5.6695,9.7875,-2.1644,2017-03-20 18:56:16:915
5.6695,9.7875,-2.1644,2017-03-20 18:56:16:924
4.4532,9.1842,0.9768,2017-03-20 18:56:16:934
4.4532,9.1842,0.9768,2017-03-20 18:56:16:944
3.5243,8.5138,1.9968,2017-03-20 18:56:16:954
3.5243,8.5138,1.9968,2017-03-20 18:56:16:965
6.6176,8.26,-5.4684,2017-03-20 18:56:16:975
6.6176,8.26,-5.4684,2017-03-20 18:56:16:985
4.6591,9.4236,-1.4126,2017-03-20 18:56:16:994
4.6591,9.4236,-1.4126,2017-03-20 18:56:17:004
4.4436,9.0405,1.8627,2017-03-20 18:56:17:014
4.4436,9.0405,1.8627,2017-03-20 18:56:17:025
4.2234,8.4946,1.1013,2017-03-20 18:56:17:035
4.2234,8.4946,1.1013,2017-03-20 18:56:17:045
4.4484,9.1985,0.4453,2017-03-20 18:56:17:055
4.4484,9.1985,0.4453,2017-03-20 18:56:17:064
5.3678,9.3853,0,2017-03-20 18:56:17:075
5.8419,9.5672,-0.3879,2017-03-20 18:56:17:085
5.8419,9.5672,-0.3879,2017-03-20 18:56:17:094
5.8419,9.5672,-0.3879,2017-03-20 18:56:17:105
6.3782,9.5864,-1.5802,2017-03-20 18:56:17:115
6.3782,9.5864,-1.5802,2017-03-20 18:56:17:125
5.9999,8.9974,-1.1396,2017-03-20 18:56:17:134
5.9999,8.9974,-1.1396,2017-03-20 18:56:17:145
5.8802,8.6766,-0.8188,2017-03-20 18:56:17:155
5.5498,8.6335,1.5802,2017-03-20 18:56:17:165
5.5498,8.6335,1.5802,2017-03-20 18:56:17:174
5.3391,8.509,1.5754,2017-03-20 18:56:17:184
5.3391,8.509,1.5754,2017-03-20 18:56:17:195
5.5545,7.6231,-1.0199,2017-03-20 18:56:17:205
5.5785,7.0437,-1.6137,2017-03-20 18:56:17:215
5.5785,7.0437,-1.6137,2017-03-20 18:56:17:225
4.8842,6.7469,-1.4557,2017-03-20 18:56:17:235
4.8842,6.7469,-1.4557,2017-03-20 18:56:17:245
3.9648,6.5074,0.1341,2017-03-20 18:56:17:254
3.9648,6.5074,0.1341,2017-03-20 18:56:17:264
3.9648,6.5074,0.1341,2017-03-20 18:56:17:274
3.2034,6.3446,0.9912,2017-03-20 18:56:17:285
3.2034,6.3446,0.9912,2017-03-20 18:56:17:295
3.2848,5.8179,1.6855,2017-03-20 18:56:17:304
3.2848,5.8179,1.6855,2017-03-20 18:56:17:314
3.7685,5.4348,2.1835,2017-03-20 18:56:17:325
3.984,5.2289,2.15,2017-03-20 18:56:17:335
3.984,5.2289,2.15,2017-03-20 18:56:17:345
4.5921,4.9033,1.3216,2017-03-20 18:56:17:354
4.9129,4.956,0.7757,2017-03-20 18:56:17:364
4.9129,4.956,0.7757,2017-03-20 18:56:17:375
5.4636,4.6448,-0.1676,2017-03-20 18:56:17:385
5.4636,4.6448,-0.1676,2017-03-20 18:56:17:394
6.0094,4.0701,0.4549,2017-03-20 18:56:17:405
6.0094,4.0701,0.4549,2017-03-20 18:56:17:415
5.0087,4.0893,1.0582,2017-03-20 18:56:17:425
4.1563,3.9169,1.0008,2017-03-20 18:56:17:435
4.1563,3.9169,1.0008,2017-03-20 18:56:17:445
3.5961,3.4046,1.4269,2017-03-20 18:56:17:457
3.9887,3.2609,1.6424,2017-03-20 18:56:17:464
3.9887,3.2609,1.6424,2017-03-20 18:56:17:475
4.7309,3.7972,1.4844,2017-03-20 18:56:17:484
4.7309,3.7972,1.4844,2017-03-20 18:56:17:495
5.8466,4.4772,1.1684,2017-03-20 18:56:17:505
6.6846,4.8123,0.7183,2017-03-20 18:56:17:514
6.6846,4.8123,0.7183,2017-03-20 18:56:17:524
8.2744,5.6743,-0.4932,2017-03-20 18:56:17:534
8.2744,5.6743,-0.4932,2017-03-20 18:56:17:544
9.8976,6.1483,-1.4509,2017-03-20 18:56:17:554
9.8976,6.1483,-1.4509,2017-03-20 18:56:17:565
12.56,8.351,2.3942,2017-03-20 18:56:17:574
12.56,8.351,2.3942,2017-03-20 18:56:17:584
14.0348,13.3692,7.4651,2017-03-20 18:56:17:594
14.0348,13.3692,7.4651,2017-03-20 18:56:17:604
12.4642,16.5727,0.2442,2017-03-20 18:56:17:615
12.4642,16.5727,0.2442,2017-03-20 18:56:17:625
6.4979,12.8233,-2.3463,2017-03-20 18:56:17:635
6.4979,12.8233,-2.3463,2017-03-20 18:56:17:645
3.8259,9.2656,-0.5363,2017-03-20 18:56:17:654
3.8259,9.2656,-0.5363,2017-03-20 18:56:17:664
3.1508,7.8865,1.9872,2017-03-20 18:56:17:674
3.1508,7.8865,1.9872,2017-03-20 18:56:17:684
4.142,8.1594,1.8675,2017-03-20 18:56:17:694
6.1531,8.7293,1.2498,2017-03-20 18:56:17:705
6.1531,8.7293,1.2498,2017-03-20 18:56:17:715
6.8426,10.0221,0.9816,2017-03-20 18:56:17:724
5.7652,9.6103,-0.2873,2017-03-20 18:56:17:734
5.7652,9.6103,-0.2873,2017-03-20 18:56:17:744
3.3327,8.8442,-0.0383,2017-03-20 18:56:17:755
3.3327,8.8442,-0.0383,2017-03-20 18:56:17:765
2.964,8.5138,1.1923,2017-03-20 18:56:17:775
2.964,8.5138,1.1923,2017-03-20 18:56:17:784
3.6871,8.0924,1.6999,2017-03-20 18:56:17:794
3.6871,8.0924,1.6999,2017-03-20 18:56:17:805
3.7924,7.9631,1.5036,2017-03-20 18:56:17:815
3.7924,7.9631,1.5036,2017-03-20 18:56:17:825
3.7924,7.9631,1.5036,2017-03-20 18:56:17:835
4.0749,8.2456,1.1827,2017-03-20 18:56:17:845
4.2329,8.4036,0.9625,2017-03-20 18:56:17:854
4.2329,8.4036,0.9625,2017-03-20 18:56:17:864
4.5873,8.4611,0.4453,2017-03-20 18:56:17:874
4.5873,8.4611,0.4453,2017-03-20 18:56:17:885
4.8698,7.9679,-0.4741,2017-03-20 18:56:17:896
4.8746,7.3885,-0.7566,2017-03-20 18:56:17:905
4.8746,7.3885,-0.7566,2017-03-20 18:56:17:915
4.8746,7.3885,-0.7566,2017-03-20 18:56:17:925
4.865,6.9049,-0.5602,2017-03-20 18:56:17:935
4.865,6.9049,-0.5602,2017-03-20 18:56:17:944
5.0757,6.5122,-0.1293,2017-03-20 18:56:17:955
5.0757,6.5122,-0.1293,2017-03-20 18:56:17:965
5.0039,6.2441,0.1197,2017-03-20 18:56:17:974
5.0039,6.2441,0.1197,2017-03-20 18:56:17:984
4.6543,6.3015,0.3256,2017-03-20 18:56:17:994
4.6543,6.3015,0.3256,2017-03-20 18:56:18:004
4.2521,6.5936,0.2346,2017-03-20 18:56:18:014
4.2521,6.5936,0.2346,2017-03-20 18:56:18:024
4.3862,7.0102,-0.0479,2017-03-20 18:56:18:034
4.3862,7.0102,-0.0479,2017-03-20 18:56:18:044
4.4963,7.5896,-0.3974,2017-03-20 18:56:18:054
4.4963,7.5896,-0.3974,2017-03-20 18:56:18:064
4.9177,8.3462,-0.0431,2017-03-20 18:56:18:074
4.9177,8.3462,-0.0431,2017-03-20 18:56:18:084
5.2529,8.5234,0.431,2017-03-20 18:56:18:094
5.2529,8.5234,0.431,2017-03-20 18:56:18:104
5.023,8.4132,1.2833,2017-03-20 18:56:18:115
5.023,8.4132,1.2833,2017-03-20 18:56:18:125
2.9784,8.7293,-1.1779,2017-03-20 18:56:18:135
2.9784,8.7293,-1.1779,2017-03-20 18:56:18:144
3.984,8.8298,-0.0144,2017-03-20 18:56:18:154
3.984,8.8298,-0.0144,2017-03-20 18:56:18:164
3.6919,9.3278,2.2793,2017-03-20 18:56:18:174
3.6919,9.3278,2.2793,2017-03-20 18:56:18:184
2.1931,10.2807,-0.2586,2017-03-20 18:56:18:195
2.1931,10.2807,-0.2586,2017-03-20 18:56:18:205
4.0127,9.6247,-1.3838,2017-03-20 18:56:18:215
4.0127,9.6247,-1.3838,2017-03-20 18:56:18:224
4.8411,8.5569,-0.0096,2017-03-20 18:56:18:235
4.8411,8.5569,-0.0096,2017-03-20 18:56:18:245
4.9273,8.509,0.1101,2017-03-20 18:56:18:254
4.9273,8.509,0.1101,2017-03-20 18:56:18:264
5.5833,9.414,-0.067,2017-03-20 18:56:18:275
5.5833,9.414,-0.067,2017-03-20 18:56:18:285
5.5641,9.5433,2.988,2017-03-20 18:56:18:295
5.5641,9.5433,2.988,2017-03-20 18:56:18:304
5.1044,9.3853,3.7828,2017-03-20 18:56:18:315
5.1044,9.3853,3.7828,2017-03-20 18:56:18:325
5.3199,10.0556,2.8252,2017-03-20 18:56:18:334
5.3199,10.0556,2.8252,2017-03-20 18:56:18:345
5.2385,11.5353,1.2498,2017-03-20 18:56:18:355
5.2385,11.5353,1.2498,2017-03-20 18:56:18:365
5.6455,12.5983,0.7805,2017-03-20 18:56:18:374
5.6455,12.5983,0.7805,2017-03-20 18:56:18:385
6.3829,12.3206,0.8954,2017-03-20 18:56:18:395
6.3829,12.3206,0.8954,2017-03-20 18:56:18:404
5.8993,11.6167,0.2011,2017-03-20 18:56:18:415
5.8993,11.6167,0.2011,2017-03-20 18:56:18:425
5.8945,11.3437,-0.3496,2017-03-20 18:56:18:434
5.8945,11.3437,-0.3496,2017-03-20 18:56:18:444
7.1922,11.3868,-1.1157,2017-03-20 18:56:18:455
7.1922,11.3868,-1.1157,2017-03-20 18:56:18:465
6.4931,10.5824,1.2498,2017-03-20 18:56:18:475
6.4931,10.5824,1.2498,2017-03-20 18:56:18:484
6.9432,9.0597,-0.9529,2017-03-20 18:56:18:495
6.9432,9.0597,-0.9529,2017-03-20 18:56:18:505
5.9137,9.4188,-3.2753,2017-03-20 18:56:18:514
5.9137,9.4188,-3.2753,2017-03-20 18:56:18:524
5.4061,9.4092,-1.0199,2017-03-20 18:56:18:534
5.0518,9.1889,0.1915,2017-03-20 18:56:18:545
5.0518,9.1889,0.1915,2017-03-20 18:56:18:555
4.2282,8.6143,2.0494,2017-03-20 18:56:18:565
4.2282,8.6143,2.0494,2017-03-20 18:56:18:574
4.0654,7.9871,1.7334,2017-03-20 18:56:18:584
4.0654,7.9871,1.7334,2017-03-20 18:56:18:595
4.2521,7.9535,0.589,2017-03-20 18:56:18:604
4.2521,7.9535,0.589,2017-03-20 18:56:18:615
5.1523,8.1211,0.0814,2017-03-20 18:56:18:625
5.1523,8.1211,0.0814,2017-03-20 18:56:18:635
5.4875,8.4563,-0.5124,2017-03-20 18:56:18:644
5.4875,8.4563,-0.5124,2017-03-20 18:56:18:655
4.3239,8.9016,-1.9776,2017-03-20 18:56:18:664
4.3239,8.9016,-1.9776,2017-03-20 18:56:18:675
5.7652,7.829,-0.8763,2017-03-20 18:56:18:684
5.7652,7.829,-0.8763,2017-03-20 18:56:18:694
5.1619,7.7141,-0.0192,2017-03-20 18:56:18:704
5.1619,7.7141,-0.0192,2017-03-20 18:56:18:715
4.2713,8.3749,-0.3496,2017-03-20 18:56:18:724
4.2713,8.3749,-0.3496,2017-03-20 18:56:18:735
4.2665,8.758,0.9816,2017-03-20 18:56:18:744
4.2665,8.758,0.9816,2017-03-20 18:56:18:755
4.4341,7.7859,0.7805,2017-03-20 18:56:18:765
4.4341,7.7859,0.7805,2017-03-20 18:56:18:775
4.4819,6.8187,-0.3112,2017-03-20 18:56:18:785
4.4819,6.8187,-0.3112,2017-03-20 18:56:18:795
4.5873,6.4165,-0.3879,2017-03-20 18:56:18:805
4.5873,6.4165,-0.3879,2017-03-20 18:56:18:814
4.4676,6.3734,0.3735,2017-03-20 18:56:18:824
4.4676,6.3734,0.3735,2017-03-20 18:56:18:835
4.4915,6.5553,1.2881,2017-03-20 18:56:18:845
4.707,6.5793,1.3503,2017-03-20 18:56:18:854
4.707,6.5793,1.3503,2017-03-20 18:56:18:864
5.1667,6.5362,1.0822,2017-03-20 18:56:18:875
5.1667,6.5362,1.0822,2017-03-20 18:56:18:884
5.7892,6.1962,0.5267,2017-03-20 18:56:18:895
5.7892,6.1962,0.5267,2017-03-20 18:56:18:905
6.1292,5.3486,0.2777,2017-03-20 18:56:18:915
6.1292,5.3486,0.2777,2017-03-20 18:56:18:925
5.7078,4.7549,0.2203,2017-03-20 18:56:18:934
5.7078,4.7549,0.2203,2017-03-20 18:56:18:945
4.9464,4.2952,0.723,2017-03-20 18:56:18:955
4.9464,4.2952,0.723,2017-03-20 18:56:18:964
4.5203,3.8738,0.9864,2017-03-20 18:56:18:975
4.5203,3.8738,0.9864,2017-03-20 18:56:18:985
4.2713,3.1173,0.9816,2017-03-20 18:56:18:995
4.2713,3.1173,0.9816,2017-03-20 18:56:19:005
4.7022,2.964,1.1396,2017-03-20 18:56:19:015
4.7022,2.964,1.1396,2017-03-20 18:56:19:025
5.6168,3.5051,0.814,2017-03-20 18:56:19:035
5.6168,3.5051,0.814,2017-03-20 18:56:19:045
5.6168,3.5051,0.814,2017-03-20 18:56:19:054
6.6846,3.4907,0.4597,2017-03-20 18:56:19:064
6.6846,3.4907,0.4597,2017-03-20 18:56:19:074
7.4268,4.0366,0.4262,2017-03-20 18:56:19:085
7.4316,4.4389,0.3879,2017-03-20 18:56:19:095
7.4316,4.4389,0.3879,2017-03-20 18:56:19:104
7.7285,4.9991,-0.5028,2017-03-20 18:56:19:114
7.7285,4.9991,-0.5028,2017-03-20 18:56:19:124
7.7285,4.9991,-0.5028,2017-03-20 18:56:19:135
7.7045,5.387,-1.1875,2017-03-20 18:56:19:146
7.9248,6.2106,-1.0056,2017-03-20 18:56:19:155
7.9248,6.2106,-1.0056,2017-03-20 18:56:19:165
10.7548,9.0501,3.9121,2017-03-20 18:56:19:175
10.7548,9.0501,3.9121,2017-03-20 18:56:19:184
12.8808,12.6414,8.3414,2017-03-20 18:56:19:194
12.8808,12.6414,8.3414,2017-03-20 18:56:19:205
13.3309,13.8624,-1.2402,2017-03-20 18:56:19:215
12.0189,12.8377,-3.3854,2017-03-20 18:56:19:224
12.0189,12.8377,-3.3854,2017-03-20 18:56:19:236
8.8202,10.2041,-2.3798,2017-03-20 18:56:19:245
8.8202,10.2041,-2.3798,2017-03-20 18:56:19:255
5.9951,9.1028,0.3496,2017-03-20 18:56:19:265
5.9951,9.1028,0.3496,2017-03-20 18:56:19:275
4.6735,8.7149,1.1971,2017-03-20 18:56:19:285
4.6735,8.7149,1.1971,2017-03-20 18:56:19:294
6.3063,8.2169,3.4524,2017-03-20 18:56:19:305
6.3063,8.2169,3.4524,2017-03-20 18:56:19:314
6.4404,8.5473,-0.5555,2017-03-20 18:56:19:324
5.2385,8.9735,-1.403,2017-03-20 18:56:19:336
5.2385,8.9735,-1.403,2017-03-20 18:56:19:346
3.5099,9.0932,0.5602,2017-03-20 18:56:19:354
3.5099,9.0932,0.5602,2017-03-20 18:56:19:365
3.2417,8.9495,1.4748,2017-03-20 18:56:19:374
3.2417,8.9495,1.4748,2017-03-20 18:56:19:385
3.4524,9.2991,1.6281,2017-03-20 18:56:19:395
3.4524,9.2991,1.6281,2017-03-20 18:56:19:404
3.9409,9.663,1.719,2017-03-20 18:56:19:414
3.9409,9.663,1.719,2017-03-20 18:56:19:425
4.7357,9.9982,1.6137,2017-03-20 18:56:19:435
4.9608,9.9742,1.5036,2017-03-20 18:56:19:444
4.9608,9.9742,1.5036,2017-03-20 18:56:19:455
4.7357,9.4236,0.7709,2017-03-20 18:56:19:465
4.7357,9.4236,0.7709,2017-03-20 18:56:19:475
4.4484,8.2887,-0.0479,2017-03-20 18:56:19:484
4.4484,8.2887,-0.0479,2017-03-20 18:56:19:494
4.3383,7.2305,-0.6895,2017-03-20 18:56:19:505
4.3383,7.2305,-0.6895,2017-03-20 18:56:19:515
4.3383,7.2305,-0.6895,2017-03-20 18:56:19:524
4.3144,6.4404,-0.8092,2017-03-20 18:56:19:535
4.7836,5.6647,-0.5219,2017-03-20 18:56:19:544
4.7836,5.6647,-0.5219,2017-03-20 18:56:19:555
4.9081,5.3486,-0.1628,2017-03-20 18:56:19:566
4.9081,5.3486,-0.1628,2017-03-20 18:56:19:574
4.8937,5.2912,0.0718,2017-03-20 18:56:19:584
4.7501,5.5258,0.2011,2017-03-20 18:56:19:594
4.7501,5.5258,0.2011,2017-03-20 18:56:19:604
4.7501,5.5258,0.2011,2017-03-20 18:56:19:614
4.7884,5.9376,0.2107,2017-03-20 18:56:19:625
4.7884,5.9376,0.2107,2017-03-20 18:56:19:635
4.4819,6.2776,0.0431,2017-03-20 18:56:19:645
4.4819,6.2776,0.0431,2017-03-20 18:56:19:654
4.5538,6.6894,-0.1101,2017-03-20 18:56:19:665
4.5538,6.6894,-0.1101,2017-03-20 18:56:19:675
4.7262,7.7045,0.0239,2017-03-20 18:56:19:684
4.7262,7.7045,0.0239,2017-03-20 18:56:19:695
5.2912,8.2073,1.2258,2017-03-20 18:56:19:704
5.2912,8.2073,1.2258,2017-03-20 18:56:19:715
4.458,8.7149,1.8771,2017-03-20 18:56:19:724
4.458,8.7149,1.8771,2017-03-20 18:56:19:734
3.2513,9.0405,-0.6991,2017-03-20 18:56:19:745
2.5762,9.505,-3.5338,2017-03-20 18:56:19:754
2.5762,9.505,-3.5338,2017-03-20 18:56:19:764
5.1954,9.7827,2.5379,2017-03-20 18:56:19:774
5.1954,9.7827,2.5379,2017-03-20 18:56:19:785
4.2808,10.2185,2.3128,2017-03-20 18:56:19:794
4.2808,10.2185,2.3128,2017-03-20 18:56:19:805
3.2226,10.501,-2.9161,2017-03-20 18:56:19:815
3.2226,10.501,-2.9161,2017-03-20 18:56:19:824
4.1755,10.1418,0.4022,2017-03-20 18:56:19:835
4.1755,10.1418,0.4022,2017-03-20 18:56:19:845
2.557,8.3701,0.9146,2017-03-20 18:56:19:854
2.557,8.3701,0.9146,2017-03-20 18:56:19:864
3.8259,7.5274,-0.3831,2017-03-20 18:56:19:874
4.4149,7.5561,-0.8284,2017-03-20 18:56:19:885
4.4149,7.5561,-0.8284,2017-03-20 18:56:19:895
4.1659,8.1738,1.1971,2017-03-20 18:56:19:905
4.1659,8.1738,1.1971,2017-03-20 18:56:19:914
4.6352,8.8873,2.15,2017-03-20 18:56:19:925
4.6352,8.8873,2.15,2017-03-20 18:56:19:935
5.205,9.5241,2.7677,2017-03-20 18:56:19:944
5.205,9.5241,2.7677,2017-03-20 18:56:19:955
5.6503,10.6303,2.806,2017-03-20 18:56:19:964
5.6503,10.6303,2.806,2017-03-20 18:56:19:975
6.0765,12.0093,2.0016,2017-03-20 18:56:19:984
6.2872,12.6893,1.4748,2017-03-20 18:56:19:997
6.2872,12.6893,1.4748,2017-03-20 18:56:20:004
6.3063,12.9095,0.498,2017-03-20 18:56:20:014
6.3063,12.9095,0.498,2017-03-20 18:56:20:025
6.4691,11.6646,0.4884,2017-03-20 18:56:20:035
6.4691,11.6646,0.4884,2017-03-20 18:56:20:045
5.9328,11.7029,0.3735,2017-03-20 18:56:20:054
5.9328,11.7029,0.3735,2017-03-20 18:56:20:065
5.0661,12.6701,0.3112,2017-03-20 18:56:20:074
5.0661,12.6701,0.3112,2017-03-20 18:56:20:084
5.5593,12.4738,1.561,2017-03-20 18:56:20:094
5.5593,12.4738,1.561,2017-03-20 18:56:20:105
7.2161,9.8833,-4.8985,2017-03-20 18:56:20:114
7.2161,9.8833,-4.8985,2017-03-20 18:56:20:124
6.1387,9.3948,-3.1029,2017-03-20 18:56:20:135
6.1387,9.3948,-3.1029,2017-03-20 18:56:20:145
5.9233,8.7005,0.2298,2017-03-20 18:56:20:155
5.679,8.6191,1.1205,2017-03-20 18:56:20:165
5.679,8.6191,1.1205,2017-03-20 18:56:20:174
5.679,8.6191,1.1205,2017-03-20 18:56:20:185
4.0366,8.3749,1.9249,2017-03-20 18:56:20:195
3.8164,7.6567,1.3312,2017-03-20 18:56:20:205
3.8164,7.6567,1.3312,2017-03-20 18:56:20:216
3.984,7.2975,0.498,2017-03-20 18:56:20:225
3.984,7.2975,0.498,2017-03-20 18:56:20:235
3.984,7.2975,0.498,2017-03-20 18:56:20:244
5.3965,7.7333,0.249,2017-03-20 18:56:20:254
6.1914,8.2935,0.2921,2017-03-20 18:56:20:264
6.1914,8.2935,0.2921,2017-03-20 18:56:20:275
6.11,9.9838,-0.1437,2017-03-20 18:56:20:284
6.11,9.9838,-0.1437,2017-03-20 18:56:20:295
6.7564,10.9559,-1.245,2017-03-20 18:56:20:305
6.7564,10.9559,-1.245,2017-03-20 18:56:20:314
7.0485,9.9599,-1.4222,2017-03-20 18:56:20:325
7.0485,9.9599,-1.4222,2017-03-20 18:56:20:334
6.6655,8.351,0.6704,2017-03-20 18:56:20:344
6.6655,8.351,0.6704,2017-03-20 18:56:20:355
5.6647,7.944,0.68,2017-03-20 18:56:20:364
5.6647,7.944,0.68,2017-03-20 18:56:20:374
4.0654,7.1874,0.2442,2017-03-20 18:56:20:385
4.0654,7.1874,0.2442,2017-03-20 18:56:20:395
2.9161,6.3111,-0.7853,2017-03-20 18:56:20:404
2.9161,6.3111,-0.7853,2017-03-20 18:56:20:414
1.6137,5.7748,-0.4788,2017-03-20 18:56:20:425
1.6137,5.7748,-0.4788,2017-03-20 18:56:20:435
1.245,5.4396,0.1197,2017-03-20 18:56:20:445
1.245,5.4396,0.1197,2017-03-20 18:56:20:454
1.9537,5.8802,1.0726,2017-03-20 18:56:20:465
1.9537,5.8802,1.0726,2017-03-20 18:56:20:474
3.4812,5.9759,1.6664,2017-03-20 18:56:20:485
3.4812,5.9759,1.6664,2017-03-20 18:56:20:495
5.6455,5.8083,1.5419,2017-03-20 18:56:20:505
5.6455,5.8083,1.5419,2017-03-20 18:56:20:514
7.4268,5.3247,0.5507,2017-03-20 18:56:20:525
7.4268,5.3247,0.5507,2017-03-20 18:56:20:535
7.853,4.4819,-0.2251,2017-03-20 18:56:20:545
7.853,4.4819,-0.2251,2017-03-20 18:56:20:554
6.0861,4.4197,0.5507,2017-03-20 18:56:20:565
6.0861,4.4197,0.5507,2017-03-20 18:56:20:574
4.3,4.3,1.0008,2017-03-20 18:56:20:585
4.3,4.3,1.0008,2017-03-20 18:56:20:594
3.462,3.8738,0.7709,2017-03-20 18:56:20:605
3.462,3.8738,0.7709,2017-03-20 18:56:20:615
3.9648,3.553,0.3831,2017-03-20 18:56:20:625
3.9648,3.553,0.3831,2017-03-20 18:56:20:635
5.5929,4.276,1.0104,2017-03-20 18:56:20:644
6.0094,4.5633,1.1301,2017-03-20 18:56:20:655
6.0094,4.5633,1.1301,2017-03-20 18:56:20:665
7.0773,4.6974,0.589,2017-03-20 18:56:20:676
7.0773,4.6974,0.589,2017-03-20 18:56:20:685
7.0773,4.6974,0.589,2017-03-20 18:56:20:695
7.4316,4.8411,-0.5124,2017-03-20 18:56:20:705
7.2544,4.6017,-0.7757,2017-03-20 18:56:20:715
7.2544,4.6017,-0.7757,2017-03-20 18:56:20:724
7.2544,5.1571,0.7901,2017-03-20 18:56:20:734
6.9001,5.1571,0.7901,2017-03-20 18:56:20:744
9.165,11.0995,6.5697,2017-03-20 18:56:20:754
9.165,11.0995,6.5697,2017-03-20 18:56:20:764
11.3916,14.8488,6.6894,2017-03-20 18:56:20:775
11.3916,14.8488,6.6894,2017-03-20 18:56:20:784
13.4554,20.8774,0.9385,2017-03-20 18:56:20:795
13.4554,20.8774,0.9385,2017-03-20 18:56:20:805
13.6565,16.362,0.4166,2017-03-20 18:56:20:814
13.6565,16.362,0.4166,2017-03-20 18:56:20:824
5.8083,6.6463,-0.6369,2017-03-20 18:56:20:834
5.8083,6.6463,-0.6369,2017-03-20 18:56:20:845
4.8937,3.304,-1.2019,2017-03-20 18:56:20:854
4.8937,3.304,-1.2019,2017-03-20 18:56:20:865
5.296,4.1515,-0.0814,2017-03-20 18:56:20:874
5.296,4.1515,-0.0814,2017-03-20 18:56:20:884
4.3958,7.2449,1.3695,2017-03-20 18:56:20:895
4.3958,7.2449,1.3695,2017-03-20 18:56:20:904
4.3622,8.7245,1.6089,2017-03-20 18:56:20:915
4.4915,8.8059,1.5467,2017-03-20 18:56:20:925
4.4915,8.8059,1.5467,2017-03-20 18:56:20:934
4.1851,9.2033,1.6951,2017-03-20 18:56:20:945
4.4389,9.1315,1.5371,2017-03-20 18:56:20:955
4.4389,9.1315,1.5371,2017-03-20 18:56:20:964
5.047,8.8059,1.154,2017-03-20 18:56:20:974
5.0996,8.7771,0.9194,2017-03-20 18:56:20:984
5.0996,8.7771,0.9194,2017-03-20 18:56:20:995
5.2146,8.9687,0.4022,2017-03-20 18:56:21:005
5.1667,9.1315,0.091,2017-03-20 18:56:21:015
5.1667,9.1315,0.091,2017-03-20 18:56:21:025
5.1475,8.9016,-0.5315,2017-03-20 18:56:21:034
5.1475,8.9016,-0.5315,2017-03-20 18:56:21:045
5.3774,8.2361,-0.4645,2017-03-20 18:56:21:054
5.3774,8.2361,-0.4645,2017-03-20 18:56:21:065
5.3486,7.4891,-0.2442,2017-03-20 18:56:21:074
5.3486,7.4891,-0.2442,2017-03-20 18:56:21:085
4.9464,6.7421,-0.0335,2017-03-20 18:56:21:095
4.9464,6.7421,-0.0335,2017-03-20 18:56:21:105
4.7357,6.0621,-0.0096,2017-03-20 18:56:21:114
4.7357,6.0621,-0.0096,2017-03-20 18:56:21:125
4.4628,5.9376,-0.1484,2017-03-20 18:56:21:135
4.4628,5.9376,-0.1484,2017-03-20 18:56:21:144
4.1228,6.268,-0.1341,2017-03-20 18:56:21:155
4.1228,6.268,-0.1341,2017-03-20 18:56:21:164
4.2808,6.5314,-0.2298,2017-03-20 18:56:21:175
4.2808,6.5314,-0.2298,2017-03-20 18:56:21:184
4.707,6.8235,-0.1389,2017-03-20 18:56:21:194
4.707,6.8235,-0.1389,2017-03-20 18:56:21:204
4.6591,7.3023,0.2586,2017-03-20 18:56:21:215
4.6591,7.3023,0.2586,2017-03-20 18:56:21:225
4.6974,7.7764,0.4693,2017-03-20 18:56:21:234
4.6974,7.7764,0.4693,2017-03-20 18:56:21:245
5.0757,7.7812,0.838,2017-03-20 18:56:21:255
5.0757,7.7812,0.838,2017-03-20 18:56:21:265
4.6495,7.8003,1.4078,2017-03-20 18:56:21:274
4.6495,7.8003,1.4078,2017-03-20 18:56:21:284
3.5051,8.1163,-0.2394,2017-03-20 18:56:21:295
3.5051,8.1163,-0.2394,2017-03-20 18:56:21:305
4.1276,8.5425,-1.7142,2017-03-20 18:56:21:314
4.1276,8.5425,-1.7142,2017-03-20 18:56:21:324
4.9656,9.0214,3.1987,2017-03-20 18:56:21:335
4.9656,9.0214,3.1987,2017-03-20 18:56:21:345
2.9209,9.5433,-0.6704,2017-03-20 18:56:21:354
2.9209,9.5433,-0.6704,2017-03-20 18:56:21:367
4.4772,9.9072,-0.0479,2017-03-20 18:56:21:375
4.4772,9.9072,-0.0479,2017-03-20 18:56:21:385
4.1946,9.2225,0.407,2017-03-20 18:56:21:394
4.1946,9.2225,0.407,2017-03-20 18:56:21:405
4.8554,8.3989,0.2634,2017-03-20 18:56:21:414
4.8554,8.3989,0.2634,2017-03-20 18:56:21:425
4.9704,8.0732,0.4884,2017-03-20 18:56:21:435
4.9704,8.0732,0.4884,2017-03-20 18:56:21:445
5.5498,8.9352,0.2346,2017-03-20 18:56:21:454
5.5498,8.9352,0.2346,2017-03-20 18:56:21:465
5.9472,9.8162,0.5124,2017-03-20 18:56:21:475
5.9472,9.8162,0.5124,2017-03-20 18:56:21:484
5.8035,10.0604,1.9058,2017-03-20 18:56:21:494
5.8035,10.0604,1.9058,2017-03-20 18:56:21:505
5.2625,10.659,2.2505,2017-03-20 18:56:21:515
5.2625,10.659,2.2505,2017-03-20 18:56:21:525
5.8083,11.8705,1.5993,2017-03-20 18:56:21:535
5.8083,11.8705,1.5993,2017-03-20 18:56:21:545
6.7756,12.9143,1.6855,2017-03-20 18:56:21:555
6.6702,12.7898,1.2641,2017-03-20 18:56:21:564
6.6702,12.7898,1.2641,2017-03-20 18:56:21:575
6.1483,11.1857,0.067,2017-03-20 18:56:21:585
6.1483,11.1857,0.067,2017-03-20 18:56:21:594
6.0382,11.9519,-0.8523,2017-03-20 18:56:21:605
6.0382,11.9519,-0.8523,2017-03-20 18:56:21:615
5.4396,11.7603,-1.0247,2017-03-20 18:56:21:624
4.9991,11.1474,3.486,2017-03-20 18:56:21:635
4.9991,11.1474,3.486,2017-03-20 18:56:21:644
7.5178,9.0214,-4.6256,2017-03-20 18:56:21:654
7.5178,9.0214,-4.6256,2017-03-20 18:56:21:664
6.2058,9.2991,-2.8778,2017-03-20 18:56:21:674
6.2058,9.2991,-2.8778,2017-03-20 18:56:21:685
5.9472,9.1315,-0.249,2017-03-20 18:56:21:694
5.9472,9.1315,-0.249,2017-03-20 18:56:21:705
5.6886,8.4946,2.4948,2017-03-20 18:56:21:715
5.6886,8.4946,2.4948,2017-03-20 18:56:21:725
4.9273,7.7859,2.2505,2017-03-20 18:56:21:735
4.9273,7.7859,2.2505,2017-03-20 18:56:21:744
5.023,7.604,0.6656,2017-03-20 18:56:21:754
5.023,7.604,0.6656,2017-03-20 18:56:21:765
5.3678,7.829,-0.0718,2017-03-20 18:56:21:775
5.3678,7.829,-0.0718,2017-03-20 18:56:21:784
5.1523,8.5856,-0.7757,2017-03-20 18:56:21:794
5.1523,8.5856,-0.7757,2017-03-20 18:56:21:805
5.2289,9.7588,-1.6233,2017-03-20 18:56:21:815
5.1523,10.1945,-2.4804,2017-03-20 18:56:21:824
5.1523,10.1945,-2.4804,2017-03-20 18:56:21:834
5.8849,9.3613,-1.4413,2017-03-20 18:56:21:845
5.8849,9.3613,-1.4413,2017-03-20 18:56:21:855
5.4636,8.351,0.9337,2017-03-20 18:56:21:864
5.4636,8.351,0.9337,2017-03-20 18:56:21:875
5.0996,8.1738,-0.2634,2017-03-20 18:56:21:885
5.0996,8.1738,-0.2634,2017-03-20 18:56:21:894
4.8363,8.0445,0.7326,2017-03-20 18:56:21:904
4.8363,8.0445,0.7326,2017-03-20 18:56:21:915
5.023,6.5936,-0.2729,2017-03-20 18:56:21:924
5.023,6.5936,-0.2729,2017-03-20 18:56:21:934
3.1747,6.4308,-2.4325,2017-03-20 18:56:21:945
3.1747,6.4308,-2.4325,2017-03-20 18:56:21:954
3.1747,6.4308,-2.4325,2017-03-20 18:56:21:965
2.4804,5.8083,-0.6033,2017-03-20 18:56:21:974
2.4804,5.8083,-0.6033,2017-03-20 18:56:21:985
2.5953,5.7988,0.7661,2017-03-20 18:56:21:995
2.5953,5.7988,0.7661,2017-03-20 18:56:22:004
2.806,5.8275,1.1588,2017-03-20 18:56:22:014
2.806,5.8275,1.1588,2017-03-20 18:56:22:025
4.2234,6.1387,1.8579,2017-03-20 18:56:22:035
4.2234,6.1387,1.8579,2017-03-20 18:56:22:045
6.7373,6.675,1.8483,2017-03-20 18:56:22:055
6.7373,6.675,1.8483,2017-03-20 18:56:22:064
9.0261,6.3255,0.7374,2017-03-20 18:56:22:074
9.1554,5.7221,0.3974,2017-03-20 18:56:22:085
9.1554,5.7221,0.3974,2017-03-20 18:56:22:095
5.9855,5.0039,0.565,2017-03-20 18:56:22:105
5.9855,5.0039,0.565,2017-03-20 18:56:22:114
3.8499,4.3862,0.498,2017-03-20 18:56:22:125
3.8499,4.3862,0.498,2017-03-20 18:56:22:135
2.8012,3.3615,0.5028,2017-03-20 18:56:22:145
2.8012,3.3615,0.5028,2017-03-20 18:56:22:156
3.0502,2.715,0.407,2017-03-20 18:56:22:165
3.0502,2.715,0.407,2017-03-20 18:56:22:174
4.3048,3.1891,0.814,2017-03-20 18:56:22:185
4.3048,3.1891,0.814,2017-03-20 18:56:22:195
5.2194,3.3662,1.1971,2017-03-20 18:56:22:205
5.8754,3.2801,1.1684,2017-03-20 18:56:22:215
5.8754,3.2801,1.1684,2017-03-20 18:56:22:225
7.173,3.6727,0.0192,2017-03-20 18:56:22:234
7.173,3.6727,0.0192,2017-03-20 18:56:22:245
7.6902,4.5011,0.091,2017-03-20 18:56:22:254
7.6902,4.5011,0.091,2017-03-20 18:56:22:264
9.2273,6.3159,1.8148,2017-03-20 18:56:22:275
10.2328,9.1746,4.6352,2017-03-20 18:56:22:284
10.2328,9.1746,4.6352,2017-03-20 18:56:22:294
13.6613,15.5767,6.6702,2017-03-20 18:56:22:304
13.6613,15.5767,6.6702,2017-03-20 18:56:22:314
16.0603,20.1113,-1.8244,2017-03-20 18:56:22:325
16.0603,20.1113,-1.8244,2017-03-20 18:56:22:334
11.1091,11.7507,-1.0822,2017-03-20 18:56:22:345
6.8378,7.8626,-1.4269,2017-03-20 18:56:22:355
6.8378,7.8626,-1.4269,2017-03-20 18:56:22:365
3.5961,4.7309,0.4357,2017-03-20 18:56:22:374
3.5961,4.7309,0.4357,2017-03-20 18:56:22:384
2.4325,4.7357,1.7813,2017-03-20 18:56:22:395
2.4325,4.7357,1.7813,2017-03-20 18:56:22:405
4.3958,7.0868,1.3264,2017-03-20 18:56:22:414
4.3958,7.0868,1.3264,2017-03-20 18:56:22:425
6.2106,12.6414,1.1779,2017-03-20 18:56:22:435
6.2106,12.6414,1.1779,2017-03-20 18:56:22:444
6.9576,10.7643,0.656,2017-03-20 18:56:22:455
6.9576,10.7643,0.656,2017-03-20 18:56:22:464
3.3854,9.1459,1.6376,2017-03-20 18:56:22:474
3.3854,9.1459,1.6376,2017-03-20 18:56:22:484
3.462,8.7101,1.5514,2017-03-20 18:56:22:494
3.462,8.7101,1.5514,2017-03-20 18:56:22:505
4.5586,8.1977,1.087,2017-03-20 18:56:22:515
4.8171,8.1211,0.7997,2017-03-20 18:56:22:524
4.8171,8.1211,0.7997,2017-03-20 18:56:22:535
4.7357,8.5329,0.4501,2017-03-20 18:56:22:545
4.7357,8.5329,0.4501,2017-03-20 18:56:22:555
4.7693,8.7388,0.2634,2017-03-20 18:56:22:564
4.7693,8.7388,0.2634,2017-03-20 18:56:22:575
4.9752,8.3845,-0.0958,2017-03-20 18:56:22:585
4.9752,8.3845,-0.0958,2017-03-20 18:56:22:595
4.7405,7.8434,-0.3687,2017-03-20 18:56:22:604
4.7405,7.8434,-0.3687,2017-03-20 18:56:22:615
4.8459,7.4555,-0.4118,2017-03-20 18:56:22:625
4.8459,6.6511,-0.2346,2017-03-20 18:56:22:635
5.0422,6.6511,-0.2346,2017-03-20 18:56:22:644
5.0422,6.6511,-0.2346,2017-03-20 18:56:22:655
4.9847,6.2345,0.0862,2017-03-20 18:56:22:664
4.9847,6.2345,0.0862,2017-03-20 18:56:22:674
4.774,5.9999,0.2538,2017-03-20 18:56:22:685
4.774,5.9999,0.2538,2017-03-20 18:56:22:695
4.7549,6.0478,0.3496,2017-03-20 18:56:22:705
4.7549,6.0478,0.3496,2017-03-20 18:56:22:715
4.7693,6.3303,0.4118,2017-03-20 18:56:22:724
4.7693,6.3303,0.4118,2017-03-20 18:56:22:734
4.4628,6.766,0.2873,2017-03-20 18:56:22:745
4.4628,6.766,0.2873,2017-03-20 18:56:22:755
4.5011,7.1204,0.1484,2017-03-20 18:56:22:764
4.5011,7.1204,0.1484,2017-03-20 18:56:22:774
4.9368,7.7285,0.2155,2017-03-20 18:56:22:785
4.9368,7.7285,0.2155,2017-03-20 18:56:22:795
5.4875,8.327,0.3065,2017-03-20 18:56:22:805
5.4875,8.327,0.3065,2017-03-20 18:56:22:815
5.5019,8.3893,0.8428,2017-03-20 18:56:22:825
5.5019,8.3893,0.8428,2017-03-20 18:56:22:835
4.8842,8.1786,1.2977,2017-03-20 18:56:22:844
4.8842,8.1786,1.2977,2017-03-20 18:56:22:855
4.6543,8.1882,1.1444,2017-03-20 18:56:22:865
4.6543,8.1882,1.1444,2017-03-20 18:56:22:874
3.3088,8.9352,-1.7957,2017-03-20 18:56:22:885
3.3088,8.9352,-1.7957,2017-03-20 18:56:22:895
5.0709,9.0836,-1.6807,2017-03-20 18:56:22:905
5.0709,9.0836,-1.6807,2017-03-20 18:56:22:915
4.5969,9.5672,2.6001,2017-03-20 18:56:22:924
4.5969,9.5672,2.6001,2017-03-20 18:56:22:934
2.1739,9.9647,-2.5905,2017-03-20 18:56:22:944
2.1739,9.9647,-2.5905,2017-03-20 18:56:22:955
2.4134,10.3717,0.3543,2017-03-20 18:56:22:965
2.4134,10.3717,0.3543,2017-03-20 18:56:22:974
4.0318,8.916,0.5459,2017-03-20 18:56:22:986
4.0318,8.916,0.5459,2017-03-20 18:56:22:994
4.6543,8.6383,-0.316,2017-03-20 18:56:23:005
4.6543,8.6383,-0.316,2017-03-20 18:56:23:015
5.2098,9.1506,0.4262,2017-03-20 18:56:23:024
5.2098,9.1506,0.4262,2017-03-20 18:56:23:034
5.2529,9.7875,1.2977,2017-03-20 18:56:23:045
5.2529,9.7875,1.2977,2017-03-20 18:56:23:055
5.7269,10.5536,1.3743,2017-03-20 18:56:23:064
5.7269,10.5536,1.3743,2017-03-20 18:56:23:074
6.7469,11.1522,3.0023,2017-03-20 18:56:23:085
6.7469,11.1522,3.0023,2017-03-20 18:56:23:094
7.3789,11.6789,2.4852,2017-03-20 18:56:23:104
7.3789,11.6789,2.4852,2017-03-20 18:56:23:115
8.4851,11.746,0.6081,2017-03-20 18:56:23:124
8.4851,11.746,0.6081,2017-03-20 18:56:23:135
7.7812,12.1625,-0.2682,2017-03-20 18:56:23:145
7.7812,12.1625,-0.2682,2017-03-20 18:56:23:156
6.7469,12.8808,-1.063,2017-03-20 18:56:23:164
6.7469,12.8808,-1.063,2017-03-20 18:56:23:175
5.6312,13.6565,-3.802,2017-03-20 18:56:23:184
5.6312,13.6565,-3.802,2017-03-20 18:56:23:194
5.5258,12.5791,6.0717,2017-03-20 18:56:23:205
5.5258,12.5791,6.0717,2017-03-20 18:56:23:215
6.2632,10.0509,-3.7158,2017-03-20 18:56:23:225
6.2632,10.0509,-3.7158,2017-03-20 18:56:23:234
6.3494,9.6199,-4.8171,2017-03-20 18:56:23:244
6.3494,9.6199,-4.8171,2017-03-20 18:56:23:254
4.7118,9.3805,0.4166,2017-03-20 18:56:23:265
4.7118,9.3805,0.4166,2017-03-20 18:56:23:275
4.7357,7.5178,2.5426,2017-03-20 18:56:23:285
4.7357,7.5178,2.5426,2017-03-20 18:56:23:294
3.6775,6.3686,1.5083,2017-03-20 18:56:23:305
3.6344,6.2632,1.0151,2017-03-20 18:56:23:315
3.6344,6.2632,1.0151,2017-03-20 18:56:23:325
4.6208,5.8179,0.3879,2017-03-20 18:56:23:335
4.6208,5.8179,0.3879,2017-03-20 18:56:23:346
5.0087,6.3015,-0.0383,2017-03-20 18:56:23:354
5.0087,6.3015,-0.0383,2017-03-20 18:56:23:365
5.0326,7.5322,-0.972,2017-03-20 18:56:23:374
5.0326,7.5322,-0.972,2017-03-20 18:56:23:384
5.928,8.3318,-1.561,2017-03-20 18:56:23:394
5.928,8.3318,-1.561,2017-03-20 18:56:23:405
5.928,7.8721,0.9242,2017-03-20 18:56:23:414
5.928,7.8721,0.9242,2017-03-20 18:56:23:424
5.2912,8.6048,-0.747,2017-03-20 18:56:23:435
5.2912,8.6048,-0.747,2017-03-20 18:56:23:444
5.1619,8.9256,-1.2306,2017-03-20 18:56:23:455
5.1619,8.9256,-1.2306,2017-03-20 18:56:23:465
4.8794,7.9057,0.4405,2017-03-20 18:56:23:474
4.8794,7.9057,0.4405,2017-03-20 18:56:23:484
2.8299,7.0773,0.6991,2017-03-20 18:56:23:494
2.8299,7.0773,0.6991,2017-03-20 18:56:23:505
1.968,6.8666,0.2155,2017-03-20 18:56:23:514
1.968,6.8666,0.2155,2017-03-20 18:56:23:524
2.3703,7.8386,-0.7518,2017-03-20 18:56:23:534
2.3703,7.8386,-0.7518,2017-03-20 18:56:23:545
3.7733,8.1738,0.2251,2017-03-20 18:56:23:555
3.7733,8.1738,0.2251,2017-03-20 18:56:23:565
5.5498,7.92,1.1396,2017-03-20 18:56:23:575
6.0573,7.7524,1.1301,2017-03-20 18:56:23:585
6.0573,7.7524,1.1301,2017-03-20 18:56:23:594
7.0964,7.1682,1.312,2017-03-20 18:56:23:605
7.0964,7.1682,1.312,2017-03-20 18:56:23:615
7.1395,5.9855,0.7757,2017-03-20 18:56:23:624
7.1395,5.9855,0.7757,2017-03-20 18:56:23:634
5.8562,4.6256,-0.0527,2017-03-20 18:56:23:645
5.8562,4.6256,-0.0527,2017-03-20 18:56:23:655
5.8562,4.6256,-0.0527,2017-03-20 18:56:23:664
4.6017,4.0845,0.5267,2017-03-20 18:56:23:675
4.6017,4.0845,0.5267,2017-03-20 18:56:23:685
4.2138,3.9648,0.6943,2017-03-20 18:56:23:694
3.6488,4.1659,0.5986,2017-03-20 18:56:23:704
3.6488,4.1659,0.5986,2017-03-20 18:56:23:714
4.0079,3.2274,0.4549,2017-03-20 18:56:23:725
4.0079,3.2274,0.4549,2017-03-20 18:56:23:735
5.1667,3.3519,0.5746,2017-03-20 18:56:23:745
5.1667,3.3519,0.5746,2017-03-20 18:56:23:754
5.8993,3.4141,0.6273,2017-03-20 18:56:23:765
5.8993,3.4141,0.6273,2017-03-20 18:56:23:775
5.8993,3.4141,0.6273,2017-03-20 18:56:23:784
6.8043,3.3327,1.3647,2017-03-20 18:56:23:795
7.3167,3.7685,1.0008,2017-03-20 18:56:23:805
7.3167,3.7685,1.0008,2017-03-20 18:56:23:814
7.3167,3.7685,1.0008,2017-03-20 18:56:23:824
7.3358,4.8171,0.1006,2017-03-20 18:56:23:835
7.3358,4.8171,0.1006,2017-03-20 18:56:23:845
8.6095,5.8514,-0.9816,2017-03-20 18:56:23:854
8.6095,5.8514,-0.9816,2017-03-20 18:56:23:864
10.477,10.1035,5.114,2017-03-20 18:56:23:874
10.477,10.1035,5.114,2017-03-20 18:56:23:884
12.8042,13.6326,7.2496,2017-03-20 18:56:23:895
12.8042,13.6326,7.2496,2017-03-20 18:56:23:904
13.0484,16.0316,-2.5043,2017-03-20 18:56:23:914
13.0484,16.0316,-2.5043,2017-03-20 18:56:23:924
8.758,12.6462,-0.4405,2017-03-20 18:56:23:935
8.758,12.6462,-0.4405,2017-03-20 18:56:23:945
5.2864,9.3134,1.3695,2017-03-20 18:56:23:955
5.2864,9.3134,1.3695,2017-03-20 18:56:23:965
4.9033,7.3694,0.9337,2017-03-20 18:56:23:974
4.9033,7.3694,0.9337,2017-03-20 18:56:23:985
6.5888,7.829,0.6033,2017-03-20 18:56:23:995
6.5888,7.829,0.6033,2017-03-20 18:56:24:004
7.1587,9.232,1.0295,2017-03-20 18:56:24:014
7.1587,9.232,1.0295,2017-03-20 18:56:24:025
4.8698,9.3661,0.6273,2017-03-20 18:56:24:035
4.8698,9.3661,0.6273,2017-03-20 18:56:24:045
3.4141,8.9256,1.6568,2017-03-20 18:56:24:055
3.4141,8.9256,1.6568,2017-03-20 18:56:24:065
3.2561,8.4946,2.1261,2017-03-20 18:56:24:074
3.2561,8.4946,2.1261,2017-03-20 18:56:24:084
3.5961,8.3989,1.6328,2017-03-20 18:56:24:094
3.5961,8.3989,1.6328,2017-03-20 18:56:24:105
3.5961,8.3989,1.6328,2017-03-20 18:56:24:114
4.2425,8.5569,1.1875,2017-03-20 18:56:24:125
4.5011,8.8777,0.8954,2017-03-20 18:56:24:135
4.5011,8.8777,0.8954,2017-03-20 18:56:24:144
4.1468,8.7005,0.3065,2017-03-20 18:56:24:155
4.1468,8.7005,0.3065,2017-03-20 18:56:24:165
3.9552,8.3989,0.0622,2017-03-20 18:56:24:175
3.9552,8.3989,0.0622,2017-03-20 18:56:24:185
3.9792,7.7524,-0.3448,2017-03-20 18:56:24:195
4.0558,7.0725,-0.747,2017-03-20 18:56:24:205
4.0558,7.0725,-0.747,2017-03-20 18:56:24:215
4.2377,6.8905,-0.6512,2017-03-20 18:56:24:225
4.2377,6.8905,-0.6512,2017-03-20 18:56:24:235
4.1037,6.8522,-0.0096,2017-03-20 18:56:24:245
4.1037,6.8522,-0.0096,2017-03-20 18:56:24:255
4.2665,6.9959,0.4741,2017-03-20 18:56:24:264
4.2665,6.9959,0.4741,2017-03-20 18:56:24:274
4.1324,6.7516,0.8475,2017-03-20 18:56:24:284
4.1324,6.7516,0.8475,2017-03-20 18:56:24:295
3.9265,6.608,1.0151,2017-03-20 18:56:24:305
3.9265,6.608,1.0151,2017-03-20 18:56:24:315
3.8451,6.8618,1.1301,2017-03-20 18:56:24:325
3.8451,6.8618,1.1301,2017-03-20 18:56:24:334
4.2425,7.1922,1.1971,2017-03-20 18:56:24:345
4.4484,7.4747,0.9768,2017-03-20 18:56:24:354
4.4484,7.4747,0.9768,2017-03-20 18:56:24:366
4.7549,7.7093,0.7087,2017-03-20 18:56:24:375
5.1236,8.2217,0.3017,2017-03-20 18:56:24:385
5.1236,8.2217,0.3017,2017-03-20 18:56:24:396
5.0853,8.5234,0.3448,2017-03-20 18:56:24:405
5.0853,8.5234,0.3448,2017-03-20 18:56:24:414
4.6304,9.0405,0.4405,2017-03-20 18:56:24:425
4.4628,9.0118,0.3304,2017-03-20 18:56:24:435
4.4628,9.0118,0.3304,2017-03-20 18:56:24:445
3.0981,9.0692,-2.3511,2017-03-20 18:56:24:454
3.0981,9.0692,-2.3511,2017-03-20 18:56:24:466
3.146,8.8969,-5.8371,2017-03-20 18:56:24:475
3.146,8.8969,-5.8371,2017-03-20 18:56:24:485
3.9648,10.4148,12.4403,2017-03-20 18:56:24:495
3.9648,10.4148,12.4403,2017-03-20 18:56:24:504
2.2936,9.9886,-6.3734,2017-03-20 18:56:24:515
2.2936,9.9886,-6.3734,2017-03-20 18:56:24:525
7.8099,7.331,0.9673,2017-03-20 18:56:24:535
7.8099,7.331,0.9673,2017-03-20 18:56:24:545
5.1475,7.2592,-0.1101,2017-03-20 18:56:24:555
5.1475,7.2592,-0.1101,2017-03-20 18:56:24:565
5.5402,7.7716,3.0933,2017-03-20 18:56:24:574
5.5402,7.7716,3.0933,2017-03-20 18:56:24:584
6.0573,8.3749,1.561,2017-03-20 18:56:24:594
6.0573,8.3749,1.561,2017-03-20 18:56:24:604
6.0094,8.9735,0.589,2017-03-20 18:56:24:615
6.0382,9.3853,0.4932,2017-03-20 18:56:24:625
6.0382,9.3853,0.4932,2017-03-20 18:56:24:635
5.9855,10.6925,1.154,2017-03-20 18:56:24:645
6.1292,11.2719,1.6951,2017-03-20 18:56:24:654
6.1292,11.2719,1.6951,2017-03-20 18:56:24:666
6.0238,11.995,1.8866,2017-03-20 18:56:24:675
6.0238,11.995,1.8866,2017-03-20 18:56:24:685
5.8706,12.0668,1.2929,2017-03-20 18:56:24:695
5.8706,12.0668,1.2929,2017-03-20 18:56:24:705
6.426,12.7946,1.0056,2017-03-20 18:56:24:715
6.6415,13.2208,0.656,2017-03-20 18:56:24:724
6.6415,13.2208,0.656,2017-03-20 18:56:24:734
6.7373,14.5089,-0.6273,2017-03-20 18:56:24:745
6.7373,14.5089,-0.6273,2017-03-20 18:56:24:755
6.675,13.3884,0.6752,2017-03-20 18:56:24:765
6.675,13.3884,0.6752,2017-03-20 18:56:24:776
7.2544,10.228,-3.462,2017-03-20 18:56:24:785
7.2544,10.228,-3.462,2017-03-20 18:56:24:795
6.5793,9.3996,-3.5817,2017-03-20 18:56:24:804
6.5793,9.3996,-3.5817,2017-03-20 18:56:24:815
5.8754,8.9926,-1.5514,2017-03-20 18:56:24:825
5.8754,8.9926,-1.5514,2017-03-20 18:56:24:835
4.9752,8.6383,1.6807,2017-03-20 18:56:24:845
4.9752,8.6383,1.6807,2017-03-20 18:56:24:854
4.5969,7.5657,2.4756,2017-03-20 18:56:24:865
4.5969,7.5657,2.4756,2017-03-20 18:56:24:874
4.3191,7.0533,1.8148,2017-03-20 18:56:24:885
4.3191,7.0533,1.8148,2017-03-20 18:56:24:895
3.7206,6.7516,0.9625,2017-03-20 18:56:24:904
4.9081,6.4117,0.3352,2017-03-20 18:56:24:915
4.9081,6.4117,0.3352,2017-03-20 18:56:24:924
4.7118,6.6128,0.1772,2017-03-20 18:56:24:935
4.3144,7.7859,0.4357,2017-03-20 18:56:24:944
4.3144,7.7859,0.4357,2017-03-20 18:56:24:955
4.3144,7.7859,0.4357,2017-03-20 18:56:24:965
4.0654,9.2751,0.6225,2017-03-20 18:56:24:975
4.5298,9.8354,0.0287,2017-03-20 18:56:24:985
4.5298,9.8354,0.0287,2017-03-20 18:56:24:994
5.1619,9.3709,0.8332,2017-03-20 18:56:25:004
5.1619,9.3709,0.8332,2017-03-20 18:56:25:015
5.5162,8.8633,-0.1101,2017-03-20 18:56:25:025
5.5162,8.8633,-0.1101,2017-03-20 18:56:25:034
5.387,8.5808,-0.2777,2017-03-20 18:56:25:044
5.387,8.5808,-0.2777,2017-03-20 18:56:25:055
4.9991,7.4986,0.6369,2017-03-20 18:56:25:065
4.9991,7.4986,0.6369,2017-03-20 18:56:25:075
3.7924,7.0533,-3.6631,2017-03-20 18:56:25:084
3.7924,7.0533,-3.6631,2017-03-20 18:56:25:095
3.4668,6.3398,-2.0351,2017-03-20 18:56:25:105
3.4668,6.3398,-2.0351,2017-03-20 18:56:25:115
4.4819,5.6695,1.0918,2017-03-20 18:56:25:125
4.4819,5.6695,1.0918,2017-03-20 18:56:25:135
4.2808,5.1571,0.8475,2017-03-20 18:56:25:145
4.3,5.1619,0.8332,2017-03-20 18:56:25:155
4.3,5.1619,0.8332,2017-03-20 18:56:25:165
4.8219,5.2529,1.4844,2017-03-20 18:56:25:175
4.8219,5.2529,1.4844,2017-03-20 18:56:25:184
5.6982,5.3439,2.0159,2017-03-20 18:56:25:195
6.2153,5.1571,1.9872,2017-03-20 18:56:25:204
6.2153,5.1571,1.9872,2017-03-20 18:56:25:214
6.79,4.64,0.9481,2017-03-20 18:56:25:227
6.79,4.64,0.9481,2017-03-20 18:56:25:235
6.0478,4.5633,-0.2873,2017-03-20 18:56:25:244
6.0478,4.5633,-0.2873,2017-03-20 18:56:25:254
4.209,4.5394,0.3496,2017-03-20 18:56:25:264
4.209,4.5394,0.3496,2017-03-20 18:56:25:274
2.8491,4.1755,0.9816,2017-03-20 18:56:25:285
2.8491,3.8882,0.8811,2017-03-20 18:56:25:295
3.0167,3.8882,0.8811,2017-03-20 18:56:25:304
4.4676,3.3806,0.9242,2017-03-20 18:56:25:314
4.4676,3.3806,0.9242,2017-03-20 18:56:25:325
5.5019,3.2944,0.7709,2017-03-20 18:56:25:334
5.5019,3.2944,0.7709,2017-03-20 18:56:25:344
6.3111,3.4477,0.7135,2017-03-20 18:56:25:354
6.3111,3.4477,0.7135,2017-03-20 18:56:25:365
6.8666,3.9935,1.47,2017-03-20 18:56:25:375
6.8666,3.9935,1.47,2017-03-20 18:56:25:385
8.3606,5.8035,4.9416,2017-03-20 18:56:25:395
8.3606,5.8035,4.9416,2017-03-20 18:56:25:404
11.7555,11.813,4.1994,2017-03-20 18:56:25:415
14.0348,14.2742,1.4653,2017-03-20 18:56:25:425
14.0348,14.2742,1.4653,2017-03-20 18:56:25:435
16.3285,19.1297,1.6137,2017-03-20 18:56:25:444
16.3285,19.1297,1.6137,2017-03-20 18:56:25:455
13.1202,15.342,-2.3703,2017-03-20 18:56:25:465
8.9064,9.4667,-0.2394,2017-03-20 18:56:25:475
8.9064,9.4667,-0.2394,2017-03-20 18:56:25:485
8.9064,9.4667,-0.2394,2017-03-20 18:56:25:495
4.865,4.5346,0.5555,2017-03-20 18:56:25:504
4.865,4.5346,0.5555,2017-03-20 18:56:25:515
3.8068,4.3527,1.1301,2017-03-20 18:56:25:524
3.8068,4.3527,1.1301,2017-03-20 18:56:25:534
4.2808,7.2401,1.0487,2017-03-20 18:56:25:547
4.2808,7.2401,1.0487,2017-03-20 18:56:25:554
6.5936,11.4251,0.2634,2017-03-20 18:56:25:565
6.5936,11.4251,0.2634,2017-03-20 18:56:25:575
5.8993,9.5672,1.6137,2017-03-20 18:56:25:584
5.8993,9.5672,1.6137,2017-03-20 18:56:25:595
3.4524,8.4515,1.9824,2017-03-20 18:56:25:604
3.4524,8.4515,1.9824,2017-03-20 18:56:25:615
3.9217,8.4515,1.4988,2017-03-20 18:56:25:624
3.9217,8.4515,1.4988,2017-03-20 18:56:25:634
4.9799,8.4659,0.7949,2017-03-20 18:56:25:645
4.9799,8.4659,0.7949,2017-03-20 18:56:25:655
5.4109,8.9591,0.3448,2017-03-20 18:56:25:665
5.4923,9.074,0.2442,2017-03-20 18:56:25:674
5.4923,9.074,0.2442,2017-03-20 18:56:25:685
5.1332,8.7149,0.2634,2017-03-20 18:56:25:694
5.1332,8.7149,0.2634,2017-03-20 18:56:25:704
5.1044,7.8386,0.3974,2017-03-20 18:56:25:716
5.1044,7.8386,0.3974,2017-03-20 18:56:25:725
4.9512,7.2209,0.1437,2017-03-20 18:56:25:734
4.9512,7.2209,0.1437,2017-03-20 18:56:25:745
4.7501,7.0581,-0.0958,2017-03-20 18:56:25:755
4.7501,7.0581,-0.0958,2017-03-20 18:56:25:765
4.6352,7.0054,0.0431,2017-03-20 18:56:25:775
4.6352,7.0054,0.0431,2017-03-20 18:56:25:785
4.4772,6.8905,0.3112,2017-03-20 18:56:25:795
4.4436,6.8331,0.3543,2017-03-20 18:56:25:804
4.4436,6.8331,0.3543,2017-03-20 18:56:25:815
4.7309,6.5074,0.3591,2017-03-20 18:56:25:824
4.7309,6.5074,0.3591,2017-03-20 18:56:25:834
4.4867,6.1866,0.316,2017-03-20 18:56:25:845
4.4867,6.1866,0.316,2017-03-20 18:56:25:856
4.1132,6.292,0.2586,2017-03-20 18:56:25:864
4.1085,6.4452,0.1915,2017-03-20 18:56:25:875
4.1085,6.4452,0.1915,2017-03-20 18:56:25:884
4.1228,6.9767,0.0527,2017-03-20 18:56:25:895
4.1228,6.9767,0.0527,2017-03-20 18:56:25:905
4.5203,7.6327,0.1341,2017-03-20 18:56:25:915
4.5203,7.6327,0.1341,2017-03-20 18:56:25:924
4.6926,8.418,0.5507,2017-03-20 18:56:25:935
4.6926,8.418,0.5507,2017-03-20 18:56:25:945
4.6543,8.6814,1.3024,2017-03-20 18:56:25:955
4.6543,8.6814,1.3024,2017-03-20 18:56:25:965
4.0749,8.6287,1.6712,2017-03-20 18:56:25:974
4.0749,8.6287,1.6712,2017-03-20 18:56:25:985
3.7062,8.4276,1.4988,2017-03-20 18:56:25:995
3.7062,8.4276,1.4988,2017-03-20 18:56:26:005
3.9361,8.4467,0.9577,2017-03-20 18:56:26:014
3.9361,8.4467,0.9577,2017-03-20 18:56:26:024
2.8683,9.1459,-4.3766,2017-03-20 18:56:26:034
2.8683,9.1459,-4.3766,2017-03-20 18:56:26:044
5.023,9.3087,-1.5323,2017-03-20 18:56:26:054
5.023,9.3087,-1.5323,2017-03-20 18:56:26:064
4.1468,9.7731,1.1444,2017-03-20 18:56:26:074
4.1468,9.7731,1.1444,2017-03-20 18:56:26:084
1.1732,10.5489,-2.4756,2017-03-20 18:56:26:094
1.1732,10.5489,-2.4756,2017-03-20 18:56:26:105
7.197,7.4508,-0.2873,2017-03-20 18:56:26:115
7.197,7.4508,-0.2873,2017-03-20 18:56:26:125
5.3008,7.5705,-0.656,2017-03-20 18:56:26:135
5.3008,7.5705,-0.656,2017-03-20 18:56:26:145
5.9185,7.7381,-0.4932,2017-03-20 18:56:26:154
6.3255,8.2983,1.5993,2017-03-20 18:56:26:165
6.3255,8.2983,1.5993,2017-03-20 18:56:26:175
6.3255,8.2983,1.5993,2017-03-20 18:56:26:185
5.6264,8.3462,2.6145,2017-03-20 18:56:26:194
5.6264,8.3462,2.6145,2017-03-20 18:56:26:204
5.4636,8.4276,2.4995,2017-03-20 18:56:26:214
5.4636,8.4276,2.4995,2017-03-20 18:56:26:225
5.0278,9.1794,1.6089,2017-03-20 18:56:26:235
5.0278,9.1794,1.6089,2017-03-20 18:56:26:245
5.2768,10.3382,1.0104,2017-03-20 18:56:26:254
5.2768,10.3382,1.0104,2017-03-20 18:56:26:265
5.6934,11.0899,1.8914,2017-03-20 18:56:26:275
5.6934,11.0899,1.8914,2017-03-20 18:56:26:285
5.6024,11.8417,1.6568,2017-03-20 18:56:26:295
5.6024,11.8417,1.6568,2017-03-20 18:56:26:304
6.4165,13.3596,1.3024,2017-03-20 18:56:26:314
6.4165,13.3596,1.3024,2017-03-20 18:56:26:325
6.4069,14.9446,0.8715,2017-03-20 18:56:26:334
6.4069,14.9446,0.8715,2017-03-20 18:56:26:344
7.0868,15.2942,-3.0694,2017-03-20 18:56:26:355
7.829,13.4602,2.3176,2017-03-20 18:56:26:365
7.829,13.4602,2.3176,2017-03-20 18:56:26:375
7.331,10.2376,-3.0023,2017-03-20 18:56:26:384
7.331,10.2376,-3.0023,2017-03-20 18:56:26:394
6.3446,9.6055,-3.4429,2017-03-20 18:56:26:405
6.3446,9.6055,-3.4429,2017-03-20 18:56:26:415
5.6982,8.916,-1.4222,2017-03-20 18:56:26:425
5.6982,8.916,-1.4222,2017-03-20 18:56:26:435
4.6926,8.4084,0.7949,2017-03-20 18:56:26:444
4.6926,8.4084,0.7949,2017-03-20 18:56:26:454
3.8259,7.9248,2.4086,2017-03-20 18:56:26:464
3.9121,7.4268,2.2027,2017-03-20 18:56:26:475
3.9121,7.4268,2.2027,2017-03-20 18:56:26:485
4.0175,6.79,1.1396,2017-03-20 18:56:26:495
4.0175,6.79,1.1396,2017-03-20 18:56:26:504
4.7501,6.7564,0.498,2017-03-20 18:56:26:514
4.7501,6.7564,0.498,2017-03-20 18:56:26:524
4.7309,7.8482,0.2729,2017-03-20 18:56:26:535
4.7309,7.8482,0.2729,2017-03-20 18:56:26:545
4.2186,9.3326,0.0431,2017-03-20 18:56:26:554
4.2186,9.3326,0.0431,2017-03-20 18:56:26:565
5.1811,10.0269,-0.6273,2017-03-20 18:56:26:575
5.1811,10.0269,-0.6273,2017-03-20 18:56:26:585
5.454,9.8689,-2.1596,2017-03-20 18:56:26:594
5.454,9.8689,-2.1596,2017-03-20 18:56:26:604
5.2002,10.0652,-2.7581,2017-03-20 18:56:26:615
5.2002,10.0652,-2.7581,2017-03-20 18:56:26:625
4.6591,8.4228,2.6719,2017-03-20 18:56:26:634
4.6591,8.4228,2.6719,2017-03-20 18:56:26:645
4.3958,7.6854,3.6488,2017-03-20 18:56:26:654
4.3958,7.6854,3.6488,2017-03-20 18:56:26:665
2.9688,6.9001,-0.8811,2017-03-20 18:56:26:675
2.9688,6.9001,-0.8811,2017-03-20 18:56:26:684
2.4565,6.8809,-3.5721,2017-03-20 18:56:26:694
2.4565,6.8809,-3.5721,2017-03-20 18:56:26:705
3.8403,5.8227,-0.4597,2017-03-20 18:56:26:715
4.1851,5.3103,0.9481,2017-03-20 18:56:26:725
4.1851,5.3103,0.9481,2017-03-20 18:56:26:734
4.367,5.2912,1.47,2017-03-20 18:56:26:744
4.367,5.2912,1.47,2017-03-20 18:56:26:755
4.6448,5.4827,1.494,2017-03-20 18:56:26:765
4.6448,5.4827,1.494,2017-03-20 18:56:26:774
5.5929,5.8466,1.4748,2017-03-20 18:56:26:785
5.5929,5.8466,1.4748,2017-03-20 18:56:26:795
6.4548,5.8658,1.1636,2017-03-20 18:56:26:804
6.4548,5.8658,1.1636,2017-03-20 18:56:26:815
6.5314,5.3343,0.2394,2017-03-20 18:56:26:825
6.5314,5.3343,0.2394,2017-03-20 18:56:26:835
5.8275,4.889,0.2586,2017-03-20 18:56:26:844
5.8275,4.889,0.2586,2017-03-20 18:56:26:854
4.9608,4.6926,0.6608,2017-03-20 18:56:26:864
4.9608,4.6926,0.6608,2017-03-20 18:56:26:875
4.5107,4.1755,0.7614,2017-03-20 18:56:26:885
4.5107,4.1755,0.7614,2017-03-20 18:56:26:894
4.3096,3.1316,0.7039,2017-03-20 18:56:26:904
4.3096,3.1316,0.7039,2017-03-20 18:56:26:915
4.9704,3.0358,0.747,2017-03-20 18:56:26:924
4.9704,3.0358,0.747,2017-03-20 18:56:26:935
5.5402,3.0215,0.9194,2017-03-20 18:56:26:944
5.5402,3.0215,0.9194,2017-03-20 18:56:26:954
6.5314,3.0023,1.0008,2017-03-20 18:56:26:965
6.5314,3.0023,1.0008,2017-03-20 18:56:26:975
7.2496,3.3279,0.0431,2017-03-20 18:56:26:984
7.2496,3.3279,0.0431,2017-03-20 18:56:26:995
7.604,4.0127,0.2251,2017-03-20 18:56:27:004
8.691,4.9991,1.403,2017-03-20 18:56:27:015
8.691,4.9991,1.403,2017-03-20 18:56:27:025
11.1426,9.5624,5.952,2017-03-20 18:56:27:034
11.1426,9.5624,5.952,2017-03-20 18:56:27:044
13.872,13.9965,1.5275,2017-03-20 18:56:27:054
13.872,13.9965,1.5275,2017-03-20 18:56:27:065
14.5807,18.828,-1.6281,2017-03-20 18:56:27:075
14.5807,18.828,-1.6281,2017-03-20 18:56:27:085
9.3374,17.2718,2.7246,2017-03-20 18:56:27:094
9.3374,17.2718,2.7246,2017-03-20 18:56:27:106
6.292,7.8051,-0.091,2017-03-20 18:56:27:115
6.292,7.8051,-0.091,2017-03-20 18:56:27:125
5.296,5.0182,0.3256,2017-03-20 18:56:27:135
5.296,5.0182,0.3256,2017-03-20 18:56:27:145
5.9137,6.0478,1.2785,2017-03-20 18:56:27:154
5.9137,6.0478,1.2785,2017-03-20 18:56:27:164
5.4157,9.323,0.1628,2017-03-20 18:56:27:175
5.4157,9.323,0.1628,2017-03-20 18:56:27:185
4.5633,9.2177,1.0487,2017-03-20 18:56:27:195
4.5633,9.2177,1.0487,2017-03-20 18:56:27:205
3.5482,9.0501,2.083,2017-03-20 18:56:27:214
3.5482,9.0501,2.083,2017-03-20 18:56:27:224
3.9552,8.849,2.1165,2017-03-20 18:56:27:235
3.9552,8.849,2.1165,2017-03-20 18:56:27:245
4.4197,8.7388,1.3647,2017-03-20 18:56:27:255
4.4197,8.7388,1.3647,2017-03-20 18:56:27:265
4.64,8.7867,1.0104,2017-03-20 18:56:27:275
4.64,8.7867,1.0104,2017-03-20 18:56:27:284
4.64,8.7867,1.0104,2017-03-20 18:56:27:295
4.1515,8.5425,0.6033,2017-03-20 18:56:27:305
4.1515,8.5425,0.6033,2017-03-20 18:56:27:314
4.142,7.5561,0.182,2017-03-20 18:56:27:324
3.9935,6.3973,-0.6321,2017-03-20 18:56:27:334
3.9935,6.3973,-0.6321,2017-03-20 18:56:27:345
3.7541,5.545,-1.2258,2017-03-20 18:56:27:355
3.7541,5.545,-1.2258,2017-03-20 18:56:27:364
3.6727,5.1954,-0.747,2017-03-20 18:56:27:375
3.6727,5.1954,-0.747,2017-03-20 18:56:27:385
3.6727,5.1954,-0.747,2017-03-20 18:56:27:394
3.735,5.6024,-0.0527,2017-03-20 18:56:27:404
3.8978,5.8466,0.2921,2017-03-20 18:56:27:415
3.8978,5.8466,0.2921,2017-03-20 18:56:27:424
4.6878,6.45,0.7661,2017-03-20 18:56:27:434
4.6878,6.45,0.7661,2017-03-20 18:56:27:445
5.1284,7.1395,1.2067,2017-03-20 18:56:27:454
5.1284,7.1395,1.2067,2017-03-20 18:56:27:464
5.0613,7.288,1.3072,2017-03-20 18:56:27:474
4.9368,7.1539,1.0822,2017-03-20 18:56:27:485
4.9368,7.1539,1.0822,2017-03-20 18:56:27:495
5.0087,7.5274,0.249,2017-03-20 18:56:27:505
5.0087,7.5274,0.249,2017-03-20 18:56:27:514
5.296,7.8051,-0.4597,2017-03-20 18:56:27:524
5.296,7.8051,-0.4597,2017-03-20 18:56:27:535
5.5976,8.2648,-0.5076,2017-03-20 18:56:27:545
5.5976,8.2648,-0.5076,2017-03-20 18:56:27:554
4.9847,8.8155,0,2017-03-20 18:56:27:564
4.9847,8.8155,0,2017-03-20 18:56:27:575
3.2992,9.0309,-3.2705,2017-03-20 18:56:27:585
3.2992,9.0309,-3.2705,2017-03-20 18:56:27:595
4.7214,8.9783,0.2203,2017-03-20 18:56:27:605
4.5586,9.4236,3.9456,2017-03-20 18:56:27:615
4.5586,9.4236,3.9456,2017-03-20 18:56:27:627
1.8962,10.4627,4.6591,2017-03-20 18:56:27:634
1.8962,10.4627,4.6591,2017-03-20 18:56:27:644
3.7254,10.726,-5.2864,2017-03-20 18:56:27:655
3.7254,10.726,-5.2864,2017-03-20 18:56:27:664
5.7078,8.3031,1.834,2017-03-20 18:56:27:674
5.7078,8.3031,1.834,2017-03-20 18:56:27:685
3.213,8.327,-0.7326,2017-03-20 18:56:27:695
3.213,8.327,-0.7326,2017-03-20 18:56:27:704
5.1906,8.0206,2.8204,2017-03-20 18:56:27:714
5.1906,8.0206,2.8204,2017-03-20 18:56:27:724
4.5011,7.8913,2.3703,2017-03-20 18:56:27:735
4.8363,7.7333,1.8866,2017-03-20 18:56:27:745
4.8363,7.7333,1.8866,2017-03-20 18:56:27:754
4.9799,7.8961,1.0822,2017-03-20 18:56:27:764
4.9799,7.8961,1.0822,2017-03-20 18:56:27:774
5.205,8.7532,1.1923,2017-03-20 18:56:27:785
5.205,8.7532,1.1923,2017-03-20 18:56:27:794
5.4731,9.7636,1.3838,2017-03-20 18:56:27:804
5.43,10.2807,0.8763,2017-03-20 18:56:27:814
5.43,10.2807,0.8763,2017-03-20 18:56:27:824
5.3822,11.0085,1.0822,2017-03-20 18:56:27:835
5.3822,11.0085,1.0822,2017-03-20 18:56:27:845
5.3822,11.0085,1.0822,2017-03-20 18:56:27:854
5.2289,11.5736,1.6281,2017-03-20 18:56:27:865
5.3343,13.1154,0.3256,2017-03-20 18:56:27:875
5.3343,13.1154,0.3256,2017-03-20 18:56:27:884
5.3343,13.1154,0.3256,2017-03-20 18:56:27:894
6.9001,13.9007,0.5171,2017-03-20 18:56:27:904
6.6272,13.4746,0.3591,2017-03-20 18:56:27:914
6.6272,13.4746,0.3591,2017-03-20 18:56:27:925
7.355,13.0771,0.1437,2017-03-20 18:56:27:935
7.355,13.0771,0.1437,2017-03-20 18:56:27:944
7.3167,12.4546,-0.0479,2017-03-20 18:56:27:954
7.3167,12.4546,-0.0479,2017-03-20 18:56:27:966
5.9233,10.975,-0.4932,2017-03-20 18:56:27:975
5.9233,10.975,-0.4932,2017-03-20 18:56:27:984
6.4356,10.07,-2.5857,2017-03-20 18:56:27:995
6.4356,10.07,-2.5857,2017-03-20 18:56:28:005
6.4596,9.6103,-2.2984,2017-03-20 18:56:28:014
6.4596,9.6103,-2.2984,2017-03-20 18:56:28:025
5.0039,9.596,-0.3639,2017-03-20 18:56:28:035
5.0039,9.596,-0.3639,2017-03-20 18:56:28:044
3.5913,8.9064,1.6233,2017-03-20 18:56:28:054
3.5913,8.9064,1.6233,2017-03-20 18:56:28:065
3.3662,6.8809,0.8859,2017-03-20 18:56:28:076
3.3662,6.8809,0.8859,2017-03-20 18:56:28:084
3.8978,5.4779,0.4597,2017-03-20 18:56:28:095
4.4963,5.3439,0.3687,2017-03-20 18:56:28:104
4.4963,5.3439,0.3687,2017-03-20 18:56:28:115
6.4835,5.3678,0.4405,2017-03-20 18:56:28:125
6.4835,5.3678,0.4405,2017-03-20 18:56:28:135
7.2161,7.7764,0.6273,2017-03-20 18:56:28:145
7.2161,7.7764,0.6273,2017-03-20 18:56:28:155
7.1826,9.8258,-0.3448,2017-03-20 18:56:28:165
7.1826,9.8258,-0.3448,2017-03-20 18:56:28:174
6.1962,10.4052,-0.1963,2017-03-20 18:56:28:184
6.1962,10.4052,-0.1963,2017-03-20 18:56:28:195
5.7509,10.2568,0.1245,2017-03-20 18:56:28:205
5.7509,10.2568,0.1245,2017-03-20 18:56:28:214
4.5059,9.9168,-1.0534,2017-03-20 18:56:28:224
4.5059,9.9168,-1.0534,2017-03-20 18:56:28:235
2.8443,9.1219,-3.4955,2017-03-20 18:56:28:245
2.8443,9.1219,-3.4955,2017-03-20 18:56:28:254
3.0742,7.0916,-0.3017,2017-03-20 18:56:28:264
3.0742,7.0916,-0.3017,2017-03-20 18:56:28:275
2.2218,6.1435,0.3496,2017-03-20 18:56:28:285
2.2218,6.1435,0.3496,2017-03-20 18:56:28:295
2.7629,5.3391,0.7949,2017-03-20 18:56:28:304
2.7629,5.3391,0.7949,2017-03-20 18:56:28:314
3.6296,4.707,0.9912,2017-03-20 18:56:28:325
3.6296,4.707,0.9912,2017-03-20 18:56:28:335
4.3239,4.8411,1.1827,2017-03-20 18:56:28:345
4.3239,4.8411,1.1827,2017-03-20 18:56:28:354
5.8419,4.8076,0.656,2017-03-20 18:56:28:365
5.8419,4.8076,0.656,2017-03-20 18:56:28:375
6.8666,4.458,0.2298,2017-03-20 18:56:28:384
6.8666,4.458,0.2298,2017-03-20 18:56:28:394
6.8666,4.458,0.2298,2017-03-20 18:56:28:404
6.5266,4.0223,0.9146,2017-03-20 18:56:28:414
5.8514,3.1077,0.7374,2017-03-20 18:56:28:425
5.8514,3.1077,0.7374,2017-03-20 18:56:28:435
4.2425,2.4086,1.0487,2017-03-20 18:56:28:444
4.2425,2.4086,1.0487,2017-03-20 18:56:28:455
3.4046,1.81,0.8475,2017-03-20 18:56:28:464
3.4046,1.81,0.8475,2017-03-20 18:56:28:475
4.3096,1.7334,0.5794,2017-03-20 18:56:28:485
4.3096,1.7334,0.5794,2017-03-20 18:56:28:494
5.8323,2.1739,0.9577,2017-03-20 18:56:28:504
5.8323,2.1739,0.9577,2017-03-20 18:56:28:515
6.7469,2.739,0.4357,2017-03-20 18:56:28:525
6.7469,2.739,0.4357,2017-03-20 18:56:28:535
6.766,3.4189,2.873,2017-03-20 18:56:28:545
6.766,3.4189,2.873,2017-03-20 18:56:28:555
8.7963,7.039,3.5003,2017-03-20 18:56:28:564
11.4012,12.3445,1.0726,2017-03-20 18:56:28:575
11.4012,12.3445,1.0726,2017-03-20 18:56:28:584
13.307,15.2798,0.3974,2017-03-20 18:56:28:594
13.307,15.2798,0.3974,2017-03-20 18:56:28:604
12.1769,20.8152,2.0303,2017-03-20 18:56:28:614
12.1769,20.8152,2.0303,2017-03-20 18:56:28:624
8.691,13.6565,1.4317,2017-03-20 18:56:28:636
8.691,13.6565,1.4317,2017-03-20 18:56:28:645
5.205,6.8139,-0.158,2017-03-20 18:56:28:655
5.205,6.8139,-0.158,2017-03-20 18:56:28:665
5.296,6.2393,1.0199,2017-03-20 18:56:28:674
5.296,6.2393,1.0199,2017-03-20 18:56:28:684
7.1778,9.0884,0.9337,2017-03-20 18:56:28:695
7.1778,9.0884,0.9337,2017-03-20 18:56:28:705
6.9049,9.5481,1.1827,2017-03-20 18:56:28:714
6.9049,9.5481,1.1827,2017-03-20 18:56:28:725
3.9409,7.3023,1.4269,2017-03-20 18:56:28:735
3.0981,6.9432,1.7573,2017-03-20 18:56:28:745
3.0981,6.9432,1.7573,2017-03-20 18:56:28:754
3.1843,6.541,2.0925,2017-03-20 18:56:28:764
3.1843,6.541,2.0925,2017-03-20 18:56:28:775
3.0502,7.1874,0.9098,2017-03-20 18:56:28:785
3.0502,7.1874,0.9098,2017-03-20 18:56:28:794
4.1515,9.2129,-0.1149,2017-03-20 18:56:28:805
4.1515,9.2129,-0.1149,2017-03-20 18:56:28:815
5.0135,10.0987,0.3065,2017-03-20 18:56:28:824
5.0135,10.0987,0.3065,2017-03-20 18:56:28:835
4.7022,8.7197,0.249,2017-03-20 18:56:28:845
4.7022,8.7197,0.249,2017-03-20 18:56:28:855
4.3766,7.7476,-0.0527,2017-03-20 18:56:28:864
4.3766,7.7476,-0.0527,2017-03-20 18:56:28:874
4.525,7.4508,0.0575,2017-03-20 18:56:28:884
4.525,7.4508,0.0575,2017-03-20 18:56:28:895
4.7932,7.2688,0.4597,2017-03-20 18:56:28:905
4.7932,7.2688,0.4597,2017-03-20 18:56:28:915
4.9273,7.6088,0.8954,2017-03-20 18:56:28:924
4.9273,7.6088,0.8954,2017-03-20 18:56:28:934
4.8459,7.9248,1.0151,2017-03-20 18:56:28:945
4.8459,7.9248,1.0151,2017-03-20 18:56:28:955
4.7022,7.8865,-0.0239,2017-03-20 18:56:28:965
5.1619,7.6662,-0.4405,2017-03-20 18:56:28:975
5.1619,7.6662,-0.4405,2017-03-20 18:56:28:985
5.0566,7.58,-0.5124,2017-03-20 18:56:28:995
4.3479,7.3646,-0.2921,2017-03-20 18:56:29:005
4.3479,7.3646,-0.2921,2017-03-20 18:56:29:015
4.2329,6.5362,-0.1724,2017-03-20 18:56:29:024
4.2329,6.5362,-0.1724,2017-03-20 18:56:29:034
3.5578,6.3207,0.0527,2017-03-20 18:56:29:045
3.5578,6.3207,0.0527,2017-03-20 18:56:29:055
3.5578,6.3207,0.0527,2017-03-20 18:56:29:064
3.711,6.9001,0.2586,2017-03-20 18:56:29:075
4.4053,7.8338,1.0151,2017-03-20 18:56:29:084
4.4053,7.8338,1.0151,2017-03-20 18:56:29:094
4.1899,8.3893,1.1636,2017-03-20 18:56:29:105
4.4819,8.7819,1.0343,2017-03-20 18:56:29:115
4.4819,8.7819,1.0343,2017-03-20 18:56:29:125
4.3191,9.5098,0.1341,2017-03-20 18:56:29:138
4.3191,9.5098,0.1341,2017-03-20 18:56:29:145
3.9887,9.7252,-0.2394,2017-03-20 18:56:29:154
3.9887,9.7252,-0.2394,2017-03-20 18:56:29:165
3.7637,8.6335,1.1827,2017-03-20 18:56:29:174
3.7637,8.6335,1.1827,2017-03-20 18:56:29:184
4.1946,8.1834,0.4357,2017-03-20 18:56:29:195
4.1946,8.1834,0.4357,2017-03-20 18:56:29:205
5.2002,8.691,0.5794,2017-03-20 18:56:29:216
5.2002,8.691,0.5794,2017-03-20 18:56:29:224
5.7461,8.8969,-0.0431,2017-03-20 18:56:29:235
5.7317,8.9352,0.4022,2017-03-20 18:56:29:244
5.7317,8.9352,0.4022,2017-03-20 18:56:29:255
5.2385,10.0844,0.7087,2017-03-20 18:56:29:264
5.2385,10.0844,0.7087,2017-03-20 18:56:29:274
5.1236,11.5688,2.0303,2017-03-20 18:56:29:284
5.1236,11.5688,2.0303,2017-03-20 18:56:29:294
4.9464,13.623,2.1596,2017-03-20 18:56:29:305
4.9464,13.623,2.1596,2017-03-20 18:56:29:315
5.2864,15.208,0.2634,2017-03-20 18:56:29:325
5.2864,15.208,0.2634,2017-03-20 18:56:29:335
5.8227,14.6956,1.5945,2017-03-20 18:56:29:345
5.8227,14.6956,1.5945,2017-03-20 18:56:29:355
5.3391,13.3213,-2.3655,2017-03-20 18:56:29:365
5.3391,13.3213,-2.3655,2017-03-20 18:56:29:375
5.7748,12.0189,2.6097,2017-03-20 18:56:29:384
5.7748,12.0189,2.6097,2017-03-20 18:56:29:395
6.2201,10.8218,-2.332,2017-03-20 18:56:29:404
6.2201,10.8218,-2.332,2017-03-20 18:56:29:414
6.0334,10.5105,-2.241,2017-03-20 18:56:29:424
6.0334,10.5105,-2.241,2017-03-20 18:56:29:434
4.9656,9.6199,-0.6943,2017-03-20 18:56:29:444
4.9656,9.6199,-0.6943,2017-03-20 18:56:29:455
4.2952,8.1307,-0.5602,2017-03-20 18:56:29:464
4.2377,7.331,-0.34,2017-03-20 18:56:29:475
4.2377,7.331,-0.34,2017-03-20 18:56:29:484
4.2377,7.331,-0.34,2017-03-20 18:56:29:495
3.4046,6.924,0.8906,2017-03-20 18:56:29:505
3.4046,6.924,0.8906,2017-03-20 18:56:29:515
3.146,6.7133,1.4365,2017-03-20 18:56:29:525
4.0941,6.45,0.6752,2017-03-20 18:56:29:535
4.5394,6.9384,-0.5698,2017-03-20 18:56:29:545
4.5394,6.9384,-0.5698,2017-03-20 18:56:29:554
4.0989,8.4084,-0.4597,2017-03-20 18:56:29:565
4.0989,8.4084,-0.4597,2017-03-20 18:56:29:574
4.9943,10.2615,-1.1971,2017-03-20 18:56:29:584
4.9943,10.2615,-1.1971,2017-03-20 18:56:29:594
5.1763,12.7994,-2.6863,2017-03-20 18:56:29:604
5.1763,12.7994,-2.6863,2017-03-20 18:56:29:615
4.8123,11.5879,2.6624,2017-03-20 18:56:29:625
4.8123,11.5879,2.6624,2017-03-20 18:56:29:634
4.7501,9.4619,1.9249,2017-03-20 18:56:29:644
4.7501,9.4619,1.9249,2017-03-20 18:56:29:654
5.5737,8.6095,-1.8148,2017-03-20 18:56:29:664
5.5737,8.6095,-1.8148,2017-03-20 18:56:29:674
4.8411,8.102,-2.9784,2017-03-20 18:56:29:684
4.8411,8.102,-2.9784,2017-03-20 18:56:29:695
4.3574,7.2257,-0.5555,2017-03-20 18:56:29:705
3.8068,6.3063,0.2059,2017-03-20 18:56:29:715
3.8068,6.3063,0.2059,2017-03-20 18:56:29:724
3.8068,6.3063,0.2059,2017-03-20 18:56:29:735
3.9409,5.2864,0.2155,2017-03-20 18:56:29:745
3.6009,4.8985,0.1867,2017-03-20 18:56:29:754
3.6009,4.8985,0.1867,2017-03-20 18:56:29:764
3.6009,4.8985,0.1867,2017-03-20 18:56:29:775
3.0311,4.7118,0.3879,2017-03-20 18:56:29:785
3.0311,4.7118,0.3879,2017-03-20 18:56:29:795
2.8922,3.8355,1.1396,2017-03-20 18:56:29:805
2.8922,3.8355,1.1396,2017-03-20 18:56:29:815
3.2657,3.3998,0.5124,2017-03-20 18:56:29:825
3.2657,3.3998,0.5124,2017-03-20 18:56:29:834
5.5737,3.5099,-0.4357,2017-03-20 18:56:29:844
5.5737,3.5099,-0.4357,2017-03-20 18:56:29:854
6.7852,3.7972,1.1636,2017-03-20 18:56:29:865
6.7852,3.7972,1.1636,2017-03-20 18:56:29:874
6.4596,3.3806,0.8092,2017-03-20 18:56:29:884
6.4596,3.3806,0.8092,2017-03-20 18:56:29:894
4.2473,2.1261,1.0822,2017-03-20 18:56:29:904
4.2473,2.1261,1.0822,2017-03-20 18:56:29:914
4.2569,1.7861,0.5507,2017-03-20 18:56:29:924
4.2569,1.7861,0.5507,2017-03-20 18:56:29:934
4.0941,1.8914,0.1484,2017-03-20 18:56:29:944
4.0941,1.8914,0.1484,2017-03-20 18:56:29:954
4.9847,2.7102,0.0239,2017-03-20 18:56:29:965
4.9847,2.7102,0.0239,2017-03-20 18:56:29:975
8.4324,6.1866,4.3048,2017-03-20 18:56:29:984
10.2855,9.3565,7.2305,2017-03-20 18:56:29:995
10.2855,9.3565,7.2305,2017-03-20 18:56:30:004
14.5184,15.0308,5.3774,2017-03-20 18:56:30:014
14.5184,15.0308,5.3774,2017-03-20 18:56:30:025
14.7339,18.2917,-1.1253,2017-03-20 18:56:30:035
14.7339,18.2917,-1.1253,2017-03-20 18:56:30:044
13.963,17.2478,-1.4988,2017-03-20 18:56:30:054
7.7907,10.386,-0.1532,2017-03-20 18:56:30:065
7.7907,10.386,-0.1532,2017-03-20 18:56:30:074
4.4149,7.2113,0.1053,2017-03-20 18:56:30:084
4.4149,7.2113,0.1053,2017-03-20 18:56:30:094
4.3144,6.8666,1.5945,2017-03-20 18:56:30:104
4.3144,6.8666,1.5945,2017-03-20 18:56:30:114
5.7269,8.4851,0.9864,2017-03-20 18:56:30:124
5.7269,8.4851,0.9864,2017-03-20 18:56:30:134
4.4628,8.7867,0.8619,2017-03-20 18:56:30:144
4.4628,8.7867,0.8619,2017-03-20 18:56:30:155
